"rt","stimulus","key_press","trial_type","trial_index","time_elapsed","internal_node_id","subject","session","sex","handedness","age","responses","test_part","condition","correct_response","angle","correct"
"1333","<p>Mental Rotation Experiment.</p> <p>Dr&uuml;cke eine beliebige Taste, um anzufangen.</p>","13","html-keyboard-response","0","1371","0.0-0.0","ADKI","3","m","rechts","22","","","","","",""
"3183","","","survey-text","1","4557","0.0-1.0","ADKI","3","m","rechts","22","{""Q0"":""ADKI""}","","","","",""
"2282","","","survey-text","2","6841","0.0-2.0","ADKI","3","m","rechts","22","{""Q0"":""3""}","","","","",""
"21804","","","survey-multi-choice","3","28650","0.0-3.0","ADKI","3","m","rechts","22","{""Q0"":""m"",""Q1"":""rechts""}","","","","",""
"2323","","","survey-text","4","30974","0.0-4.0","ADKI","3","m","rechts","22","{""Q0"":""22""}","","","","",""
"17291","<p>Stell dir vor, dass du vor einem runden Tisch stehst, auf dem sich ein blauer Ball am Tischrand befindet. Entlang des Tischrands ist jeweils ein verschieden langer Pfeil. Nun bleibst du an deinem Platz vor dem Tisch und rotierst den Tisch entlang des Pfeils (gleiche Richtung und Länge). </p> <img src='img/30_180.png'></img> <br><p> Nachdem du diese (vorgestellte) Rotation durchgef&uuml;hrt hast, schau in Richtung der Tischmitte, und entscheide dann, ob der Ball links oder rechts von dir liegt.</p> <p>Dr&uuml;cke die <strong>'f'</strong>-Taste f&uuml;r links, die <strong>'j'</strong>-Taste f&uuml;r rechts.</p><br><p> Das Bild wird jeweils 1 Sekunde lang pr&auml;sentiert. Du hast 3 Sekunden Zeit eine Entscheidung zu treffen.</p>","74","html-keyboard-response","5","48274","0.0-5.0","ADKI","3","m","rechts","22","","","","","",""
"null","<div style=""font-size:60px;"">+</div>","null","html-keyboard-response","6","49738","0.0-6.0-0.0","ADKI","3","m","rechts","22","","fixation","","","",""
"2008","img/90_210.png","70","image-keyboard-response","7","51766","0.0-6.0-1.0","ADKI","3","m","rechts","22","","","object","f","90","true"
"null","<div style=""font-size:60px;"">+</div>","null","html-keyboard-response","8","52230","0.0-6.0-0.1","ADKI","3","m","rechts","22","","fixation","","","",""
"757","img/0_240.png","70","image-keyboard-response","9","53005","0.0-6.0-1.1","ADKI","3","m","rechts","22","","","object","f","0","true"
"null","<div style=""font-size:60px;"">+</div>","null","html-keyboard-response","10","53371","0.0-6.0-0.2","ADKI","3","m","rechts","22","","fixation","","","",""
"1820","img/120_270.png","74","image-keyboard-response","11","55210","0.0-6.0-1.2","ADKI","3","m","rechts","22","","","object","j","120","true"
"null","<div style=""font-size:60px;"">+</div>","null","html-keyboard-response","12","55573","0.0-6.0-0.3","ADKI","3","m","rechts","22","","fixation","","","",""
"1949","img/60_90.png","70","image-keyboard-response","13","57539","0.0-6.0-1.3","ADKI","3","m","rechts","22","","","object","j","60","false"
"null","<div style=""font-size:60px;"">+</div>","null","html-keyboard-response","14","58042","0.0-6.0-0.4","ADKI","3","m","rechts","22","","fixation","","","",""
"798","img/0_90.png","74","image-keyboard-response","15","58857","0.0-6.0-1.4","ADKI","3","m","rechts","22","","","object","j","0","true"
"null","<div style=""font-size:60px;"">+</div>","null","html-keyboard-response","16","59370","0.0-6.0-0.5","ADKI","3","m","rechts","22","","fixation","","","",""
"1560","img/L30_180.png","74","image-keyboard-response","17","60947","0.0-6.0-1.5","ADKI","3","m","rechts","22","","","object","j","30","true"
"null","<div style=""font-size:60px;"">+</div>","null","html-keyboard-response","18","61325","0.0-6.0-0.6","ADKI","3","m","rechts","22","","fixation","","","",""
"799","img/0_300.png","70","image-keyboard-response","19","62140","0.0-6.0-1.6","ADKI","3","m","rechts","22","","","object","f","0","true"
"null","<div style=""font-size:60px;"">+</div>","null","html-keyboard-response","20","62558","0.0-6.0-0.7","ADKI","3","m","rechts","22","","fixation","","","",""
"1998","img/60_270.png","74","image-keyboard-response","21","64564","0.0-6.0-1.7","ADKI","3","m","rechts","22","","","object","f","60","false"
"null","<div style=""font-size:60px;"">+</div>","null","html-keyboard-response","22","64919","0.0-6.0-0.8","ADKI","3","m","rechts","22","","fixation","","","",""
"1013","img/120_180.png","70","image-keyboard-response","23","65954","0.0-6.0-1.8","ADKI","3","m","rechts","22","","","object","f","120","true"
"null","<div style=""font-size:60px;"">+</div>","null","html-keyboard-response","24","66309","0.0-6.0-0.9","ADKI","3","m","rechts","22","","fixation","","","",""
"941","img/150_300.png","74","image-keyboard-response","25","67270","0.0-6.0-1.9","ADKI","3","m","rechts","22","","","object","j","150","true"
"null","<div style=""font-size:60px;"">+</div>","null","html-keyboard-response","26","67685","0.0-6.0-0.10","ADKI","3","m","rechts","22","","fixation","","","",""
"970","img/150_90.png","70","image-keyboard-response","27","68664","0.0-6.0-1.10","ADKI","3","m","rechts","22","","","object","f","150","true"
"null","<div style=""font-size:60px;"">+</div>","null","html-keyboard-response","28","69075","0.0-6.0-0.11","ADKI","3","m","rechts","22","","fixation","","","",""
"1167","img/30_300.png","70","image-keyboard-response","29","70261","0.0-6.0-1.11","ADKI","3","m","rechts","22","","","object","f","30","true"
"null","<div style=""font-size:60px;"">+</div>","null","html-keyboard-response","30","70562","0.0-6.0-0.12","ADKI","3","m","rechts","22","","fixation","","","",""
"963","img/90_180.png","70","image-keyboard-response","31","71545","0.0-6.0-1.12","ADKI","3","m","rechts","22","","","object","f","90","true"
"null","<div style=""font-size:60px;"">+</div>","null","html-keyboard-response","32","71905","0.0-6.0-0.13","ADKI","3","m","rechts","22","","fixation","","","",""
"1331","img/120_90.png","70","image-keyboard-response","33","73255","0.0-6.0-1.13","ADKI","3","m","rechts","22","","","object","f","120","true"
"null","<div style=""font-size:60px;"">+</div>","null","html-keyboard-response","34","73765","0.0-6.0-0.14","ADKI","3","m","rechts","22","","fixation","","","",""
"974","img/150_180.png","70","image-keyboard-response","35","74761","0.0-6.0-1.14","ADKI","3","m","rechts","22","","","object","f","150","true"
"null","<div style=""font-size:60px;"">+</div>","null","html-keyboard-response","36","75125","0.0-6.0-0.15","ADKI","3","m","rechts","22","","fixation","","","",""
"813","img/0_330.png","70","image-keyboard-response","37","75956","0.0-6.0-1.15","ADKI","3","m","rechts","22","","","object","f","0","true"
"null","<div style=""font-size:60px;"">+</div>","null","html-keyboard-response","38","76266","0.0-6.0-0.16","ADKI","3","m","rechts","22","","fixation","","","",""
"1187","img/30_60.png","74","image-keyboard-response","39","77473","0.0-6.0-1.16","ADKI","3","m","rechts","22","","","object","j","30","true"
"null","<div style=""font-size:60px;"">+</div>","null","html-keyboard-response","40","77844","0.0-6.0-0.17","ADKI","3","m","rechts","22","","fixation","","","",""
"1008","img/90_120.png","74","image-keyboard-response","41","78869","0.0-6.0-1.17","ADKI","3","m","rechts","22","","","object","j","90","true"
"null","<div style=""font-size:60px;"">+</div>","null","html-keyboard-response","42","79235","0.0-6.0-0.18","ADKI","3","m","rechts","22","","fixation","","","",""
"1552","img/90_240.png","70","image-keyboard-response","43","80804","0.0-6.0-1.18","ADKI","3","m","rechts","22","","","object","f","90","true"
"null","<div style=""font-size:60px;"">+</div>","null","html-keyboard-response","44","81267","0.0-6.0-0.19","ADKI","3","m","rechts","22","","fixation","","","",""
"1353","img/L60_180.png","74","image-keyboard-response","45","82637","0.0-6.0-1.19","ADKI","3","m","rechts","22","","","object","j","60","true"
"null","<div style=""font-size:60px;"">+</div>","null","html-keyboard-response","46","83016","0.0-6.0-0.20","ADKI","3","m","rechts","22","","fixation","","","",""
"1180","img/120_330.png","74","image-keyboard-response","47","84212","0.0-6.0-1.20","ADKI","3","m","rechts","22","","","object","j","120","true"
"null","<div style=""font-size:60px;"">+</div>","null","html-keyboard-response","48","84718","0.0-6.0-0.21","ADKI","3","m","rechts","22","","fixation","","","",""
"1725","img/150_240.png","74","image-keyboard-response","49","86461","0.0-6.0-1.21","ADKI","3","m","rechts","22","","","object","j","150","true"
"null","<div style=""font-size:60px;"">+</div>","null","html-keyboard-response","50","86924","0.0-6.0-0.22","ADKI","3","m","rechts","22","","fixation","","","",""
"803","img/30_120.png","74","image-keyboard-response","51","87745","0.0-6.0-1.22","ADKI","3","m","rechts","22","","","object","j","30","true"
"null","<div style=""font-size:60px;"">+</div>","null","html-keyboard-response","52","88127","0.0-6.0-0.23","ADKI","3","m","rechts","22","","fixation","","","",""
"894","img/L150_180.png","74","image-keyboard-response","53","89039","0.0-6.0-1.23","ADKI","3","m","rechts","22","","","object","j","150","true"
"null","<div style=""font-size:60px;"">+</div>","null","html-keyboard-response","54","89455","0.0-6.0-0.24","ADKI","3","m","rechts","22","","fixation","","","",""
"1040","img/0_210.png","70","image-keyboard-response","55","90512","0.0-6.0-1.24","ADKI","3","m","rechts","22","","","object","f","0","true"
"null","<div style=""font-size:60px;"">+</div>","null","html-keyboard-response","56","90923","0.0-6.0-0.25","ADKI","3","m","rechts","22","","fixation","","","",""
"933","img/0_150.png","74","image-keyboard-response","57","91874","0.0-6.0-1.25","ADKI","3","m","rechts","22","","","object","j","0","true"
"null","<div style=""font-size:60px;"">+</div>","null","html-keyboard-response","58","92299","0.0-6.0-0.26","ADKI","3","m","rechts","22","","fixation","","","",""
"759","img/60_30.png","70","image-keyboard-response","59","93077","0.0-6.0-1.26","ADKI","3","m","rechts","22","","","object","f","60","true"
"null","<div style=""font-size:60px;"">+</div>","null","html-keyboard-response","60","93501","0.0-6.0-0.27","ADKI","3","m","rechts","22","","fixation","","","",""
"762","img/L90_180.png","74","image-keyboard-response","61","94281","0.0-6.0-1.27","ADKI","3","m","rechts","22","","","object","j","90","true"
"null","<div style=""font-size:60px;"">+</div>","null","html-keyboard-response","62","94735","0.0-6.0-0.28","ADKI","3","m","rechts","22","","fixation","","","",""
"717","img/0_120.png","74","image-keyboard-response","63","95462","0.0-6.0-1.28","ADKI","3","m","rechts","22","","","object","j","0","true"
"null","<div style=""font-size:60px;"">+</div>","null","html-keyboard-response","64","95768","0.0-6.0-0.29","ADKI","3","m","rechts","22","","fixation","","","",""
"1129","img/90_150.png","74","image-keyboard-response","65","96914","0.0-6.0-1.29","ADKI","3","m","rechts","22","","","object","j","90","true"
"null","<div style=""font-size:60px;"">+</div>","null","html-keyboard-response","66","97416","0.0-6.0-0.30","ADKI","3","m","rechts","22","","fixation","","","",""
"838","img/90_330.png","74","image-keyboard-response","67","98274","0.0-6.0-1.30","ADKI","3","m","rechts","22","","","object","j","90","true"
"null","<div style=""font-size:60px;"">+</div>","null","html-keyboard-response","68","98595","0.0-6.0-0.31","ADKI","3","m","rechts","22","","fixation","","","",""
"878","img/60_330.png","74","image-keyboard-response","69","99491","0.0-6.0-1.31","ADKI","3","m","rechts","22","","","object","j","60","true"
"null","<div style=""font-size:60px;"">+</div>","null","html-keyboard-response","70","99814","0.0-6.0-0.32","ADKI","3","m","rechts","22","","fixation","","","",""
"850","img/90_300.png","74","image-keyboard-response","71","100681","0.0-6.0-1.32","ADKI","3","m","rechts","22","","","object","j","90","true"
"null","<div style=""font-size:60px;"">+</div>","null","html-keyboard-response","72","101049","0.0-6.0-0.33","ADKI","3","m","rechts","22","","fixation","","","",""
"1001","img/30_270.png","70","image-keyboard-response","73","102066","0.0-6.0-1.33","ADKI","3","m","rechts","22","","","object","f","30","true"
"null","<div style=""font-size:60px;"">+</div>","null","html-keyboard-response","74","102391","0.0-6.0-0.34","ADKI","3","m","rechts","22","","fixation","","","",""
"838","img/90_60.png","70","image-keyboard-response","75","103247","0.0-6.0-1.34","ADKI","3","m","rechts","22","","","object","f","90","true"
"null","<div style=""font-size:60px;"">+</div>","null","html-keyboard-response","76","103563","0.0-6.0-0.35","ADKI","3","m","rechts","22","","fixation","","","",""
"1218","img/120_150.png","74","image-keyboard-response","77","104798","0.0-6.0-1.35","ADKI","3","m","rechts","22","","","object","j","120","true"
"null","<div style=""font-size:60px;"">+</div>","null","html-keyboard-response","78","105315","0.0-6.0-0.36","ADKI","3","m","rechts","22","","fixation","","","",""
"1359","img/30_240.png","70","image-keyboard-response","79","106690","0.0-6.0-1.36","ADKI","3","m","rechts","22","","","object","f","30","true"
"null","<div style=""font-size:60px;"">+</div>","null","html-keyboard-response","80","107096","0.0-6.0-0.37","ADKI","3","m","rechts","22","","fixation","","","",""
"1591","img/30_180.png","70","image-keyboard-response","81","108703","0.0-6.0-1.37","ADKI","3","m","rechts","22","","","object","f","30","true"
"null","<div style=""font-size:60px;"">+</div>","null","html-keyboard-response","82","109034","0.0-6.0-0.38","ADKI","3","m","rechts","22","","fixation","","","",""
"730","img/60_150.png","74","image-keyboard-response","83","109783","0.0-6.0-1.38","ADKI","3","m","rechts","22","","","object","j","60","true"
"null","<div style=""font-size:60px;"">+</div>","null","html-keyboard-response","84","110111","0.0-6.0-0.39","ADKI","3","m","rechts","22","","fixation","","","",""
"1107","img/30_90.png","74","image-keyboard-response","85","111235","0.0-6.0-1.39","ADKI","3","m","rechts","22","","","object","j","30","true"
"null","<div style=""font-size:60px;"">+</div>","null","html-keyboard-response","86","111597","0.0-6.0-0.40","ADKI","3","m","rechts","22","","fixation","","","",""
"792","img/120_30.png","70","image-keyboard-response","87","112404","0.0-6.0-1.40","ADKI","3","m","rechts","22","","","object","f","120","true"
"null","<div style=""font-size:60px;"">+</div>","null","html-keyboard-response","88","112768","0.0-6.0-0.41","ADKI","3","m","rechts","22","","fixation","","","",""
"708","img/0_60.png","74","image-keyboard-response","89","113484","0.0-6.0-1.41","ADKI","3","m","rechts","22","","","object","j","0","true"
"null","<div style=""font-size:60px;"">+</div>","null","html-keyboard-response","90","113940","0.0-6.0-0.42","ADKI","3","m","rechts","22","","fixation","","","",""
"1204","img/60_180.png","70","image-keyboard-response","91","115163","0.0-6.0-1.42","ADKI","3","m","rechts","22","","","object","f","60","true"
"null","<div style=""font-size:60px;"">+</div>","null","html-keyboard-response","92","115566","0.0-6.0-0.43","ADKI","3","m","rechts","22","","fixation","","","",""
"736","img/90_30.png","70","image-keyboard-response","93","116319","0.0-6.0-1.43","ADKI","3","m","rechts","22","","","object","f","90","true"
"null","<div style=""font-size:60px;"">+</div>","null","html-keyboard-response","94","116645","0.0-6.0-0.44","ADKI","3","m","rechts","22","","fixation","","","",""
"715","img/0_30.png","74","image-keyboard-response","95","117378","0.0-6.0-1.44","ADKI","3","m","rechts","22","","","object","j","0","true"
"null","<div style=""font-size:60px;"">+</div>","null","html-keyboard-response","96","117785","0.0-6.0-0.45","ADKI","3","m","rechts","22","","fixation","","","",""
"1154","img/60_210.png","70","image-keyboard-response","97","118952","0.0-6.0-1.45","ADKI","3","m","rechts","22","","","object","f","60","true"
"null","<div style=""font-size:60px;"">+</div>","null","html-keyboard-response","98","119364","0.0-6.0-0.46","ADKI","3","m","rechts","22","","fixation","","","",""
"1146","img/150_270.png","74","image-keyboard-response","99","120528","0.0-6.0-1.46","ADKI","3","m","rechts","22","","","object","j","150","true"
"null","<div style=""font-size:60px;"">+</div>","null","html-keyboard-response","100","121004","0.0-6.0-0.47","ADKI","3","m","rechts","22","","fixation","","","",""
"797","img/150_60.png","70","image-keyboard-response","101","121819","0.0-6.0-1.47","ADKI","3","m","rechts","22","","","object","f","150","true"
"null","<div style=""font-size:60px;"">+</div>","null","html-keyboard-response","102","122231","0.0-6.0-0.48","ADKI","3","m","rechts","22","","fixation","","","",""
"672","img/0_270.png","70","image-keyboard-response","103","122924","0.0-6.0-1.48","ADKI","3","m","rechts","22","","","object","f","0","true"
"null","<div style=""font-size:60px;"">+</div>","null","html-keyboard-response","104","123295","0.0-6.0-0.49","ADKI","3","m","rechts","22","","fixation","","","",""
"860","img/L120_180.png","74","image-keyboard-response","105","124172","0.0-6.0-1.49","ADKI","3","m","rechts","22","","","object","j","120","true"
"null","<div style=""font-size:60px;"">+</div>","null","html-keyboard-response","106","124495","0.0-6.0-0.50","ADKI","3","m","rechts","22","","fixation","","","",""
"930","img/120_210.png","70","image-keyboard-response","107","125443","0.0-6.0-1.50","ADKI","3","m","rechts","22","","","object","f","120","true"
"null","<div style=""font-size:60px;"">+</div>","null","html-keyboard-response","108","125872","0.0-6.0-0.51","ADKI","3","m","rechts","22","","fixation","","","",""
"1297","img/150_120.png","74","image-keyboard-response","109","127188","0.0-6.0-1.51","ADKI","3","m","rechts","22","","","object","f","150","false"
"null","<div style=""font-size:60px;"">+</div>","null","html-keyboard-response","110","127495","0.0-6.0-0.52","ADKI","3","m","rechts","22","","fixation","","","",""
"1796","img/90_150.png","74","image-keyboard-response","111","129303","0.0-6.0-1.52","ADKI","3","m","rechts","22","","","object","j","90","true"
"null","<div style=""font-size:60px;"">+</div>","null","html-keyboard-response","112","129809","0.0-6.0-0.53","ADKI","3","m","rechts","22","","fixation","","","",""
"1138","img/90_300.png","74","image-keyboard-response","113","130957","0.0-6.0-1.53","ADKI","3","m","rechts","22","","","object","j","90","true"
"null","<div style=""font-size:60px;"">+</div>","null","html-keyboard-response","114","131264","0.0-6.0-0.54","ADKI","3","m","rechts","22","","fixation","","","",""
"1010","img/30_270.png","70","image-keyboard-response","115","132283","0.0-6.0-1.54","ADKI","3","m","rechts","22","","","object","f","30","true"
"null","<div style=""font-size:60px;"">+</div>","null","html-keyboard-response","116","132608","0.0-6.0-0.55","ADKI","3","m","rechts","22","","fixation","","","",""
"1271","img/120_90.png","70","image-keyboard-response","117","133892","0.0-6.0-1.55","ADKI","3","m","rechts","22","","","object","f","120","true"
"null","<div style=""font-size:60px;"">+</div>","null","html-keyboard-response","118","134263","0.0-6.0-0.56","ADKI","3","m","rechts","22","","fixation","","","",""
"1188","img/150_180.png","70","image-keyboard-response","119","135456","0.0-6.0-1.56","ADKI","3","m","rechts","22","","","object","f","150","true"
"null","<div style=""font-size:60px;"">+</div>","null","html-keyboard-response","120","135810","0.0-6.0-0.57","ADKI","3","m","rechts","22","","fixation","","","",""
"840","img/0_210.png","70","image-keyboard-response","121","136660","0.0-6.0-1.57","ADKI","3","m","rechts","22","","","object","f","0","true"
"null","<div style=""font-size:60px;"">+</div>","null","html-keyboard-response","122","136967","0.0-6.0-0.58","ADKI","3","m","rechts","22","","fixation","","","",""
"996","img/0_330.png","70","image-keyboard-response","123","137976","0.0-6.0-1.58","ADKI","3","m","rechts","22","","","object","f","0","true"
"null","<div style=""font-size:60px;"">+</div>","null","html-keyboard-response","124","138482","0.0-6.0-0.59","ADKI","3","m","rechts","22","","fixation","","","",""
"999","img/L60_180.png","74","image-keyboard-response","125","139495","0.0-6.0-1.59","ADKI","3","m","rechts","22","","","object","j","60","true"
"null","<div style=""font-size:60px;"">+</div>","null","html-keyboard-response","126","139951","0.0-6.0-0.60","ADKI","3","m","rechts","22","","fixation","","","",""
"1089","img/30_180.png","70","image-keyboard-response","127","141049","0.0-6.0-1.60","ADKI","3","m","rechts","22","","","object","f","30","true"
"null","<div style=""font-size:60px;"">+</div>","null","html-keyboard-response","128","141515","0.0-6.0-0.61","ADKI","3","m","rechts","22","","fixation","","","",""
"716","img/90_30.png","70","image-keyboard-response","129","142242","0.0-6.0-1.61","ADKI","3","m","rechts","22","","","object","f","90","true"
"null","<div style=""font-size:60px;"">+</div>","null","html-keyboard-response","130","142610","0.0-6.0-0.62","ADKI","3","m","rechts","22","","fixation","","","",""
"1214","img/90_180.png","70","image-keyboard-response","131","143839","0.0-6.0-1.62","ADKI","3","m","rechts","22","","","object","f","90","true"
"null","<div style=""font-size:60px;"">+</div>","null","html-keyboard-response","132","144265","0.0-6.0-0.63","ADKI","3","m","rechts","22","","fixation","","","",""
"932","img/60_270.png","70","image-keyboard-response","133","145210","0.0-6.0-1.63","ADKI","3","m","rechts","22","","","object","f","60","true"
"null","<div style=""font-size:60px;"">+</div>","null","html-keyboard-response","134","145718","0.0-6.0-0.64","ADKI","3","m","rechts","22","","fixation","","","",""
"793","img/120_330.png","74","image-keyboard-response","135","146527","0.0-6.0-1.64","ADKI","3","m","rechts","22","","","object","j","120","true"
"null","<div style=""font-size:60px;"">+</div>","null","html-keyboard-response","136","146905","0.0-6.0-0.65","ADKI","3","m","rechts","22","","fixation","","","",""
"1789","img/150_90.png","70","image-keyboard-response","137","148707","0.0-6.0-1.65","ADKI","3","m","rechts","22","","","object","f","150","true"
"null","<div style=""font-size:60px;"">+</div>","null","html-keyboard-response","138","149015","0.0-6.0-0.66","ADKI","3","m","rechts","22","","fixation","","","",""
"1631","img/150_120.png","70","image-keyboard-response","139","150655","0.0-6.0-1.66","ADKI","3","m","rechts","22","","","object","f","150","true"
"null","<div style=""font-size:60px;"">+</div>","null","html-keyboard-response","140","151030","0.0-6.0-0.67","ADKI","3","m","rechts","22","","fixation","","","",""
"771","img/90_60.png","70","image-keyboard-response","141","151811","0.0-6.0-1.67","ADKI","3","m","rechts","22","","","object","f","90","true"
"null","<div style=""font-size:60px;"">+</div>","null","html-keyboard-response","142","152171","0.0-6.0-0.68","ADKI","3","m","rechts","22","","fixation","","","",""
"980","img/90_210.png","70","image-keyboard-response","143","153165","0.0-6.0-1.68","ADKI","3","m","rechts","22","","","object","f","90","true"
"null","<div style=""font-size:60px;"">+</div>","null","html-keyboard-response","144","153468","0.0-6.0-0.69","ADKI","3","m","rechts","22","","fixation","","","",""
"863","img/0_240.png","70","image-keyboard-response","145","154345","0.0-6.0-1.69","ADKI","3","m","rechts","22","","","object","f","0","true"
"null","<div style=""font-size:60px;"">+</div>","null","html-keyboard-response","146","154811","0.0-6.0-0.70","ADKI","3","m","rechts","22","","fixation","","","",""
"741","img/0_120.png","74","image-keyboard-response","147","155560","0.0-6.0-1.70","ADKI","3","m","rechts","22","","","object","j","0","true"
"null","<div style=""font-size:60px;"">+</div>","null","html-keyboard-response","148","155970","0.0-6.0-0.71","ADKI","3","m","rechts","22","","fixation","","","",""
"962","img/150_240.png","74","image-keyboard-response","149","156944","0.0-6.0-1.71","ADKI","3","m","rechts","22","","","object","j","150","true"
"null","<div style=""font-size:60px;"">+</div>","null","html-keyboard-response","150","157456","0.0-6.0-0.72","ADKI","3","m","rechts","22","","fixation","","","",""
"1233","img/60_180.png","70","image-keyboard-response","151","158699","0.0-6.0-1.72","ADKI","3","m","rechts","22","","","object","f","60","true"
"null","<div style=""font-size:60px;"">+</div>","null","html-keyboard-response","152","159205","0.0-6.0-0.73","ADKI","3","m","rechts","22","","fixation","","","",""
"1080","img/60_150.png","74","image-keyboard-response","153","160296","0.0-6.0-1.73","ADKI","3","m","rechts","22","","","object","j","60","true"
"null","<div style=""font-size:60px;"">+</div>","null","html-keyboard-response","154","160813","0.0-6.0-0.74","ADKI","3","m","rechts","22","","fixation","","","",""
"2100","img/120_210.png","70","image-keyboard-response","155","162919","0.0-6.0-1.74","ADKI","3","m","rechts","22","","","object","f","120","true"
"null","<div style=""font-size:60px;"">+</div>","null","html-keyboard-response","156","163250","0.0-6.0-0.75","ADKI","3","m","rechts","22","","fixation","","","",""
"1239","img/L30_180.png","74","image-keyboard-response","157","164504","0.0-6.0-1.75","ADKI","3","m","rechts","22","","","object","j","30","true"
"null","<div style=""font-size:60px;"">+</div>","null","html-keyboard-response","158","165032","0.0-6.0-0.76","ADKI","3","m","rechts","22","","fixation","","","",""
"730","img/L150_180.png","74","image-keyboard-response","159","165774","0.0-6.0-1.76","ADKI","3","m","rechts","22","","","object","j","150","true"
"null","<div style=""font-size:60px;"">+</div>","null","html-keyboard-response","160","166235","0.0-6.0-0.77","ADKI","3","m","rechts","22","","fixation","","","",""
"888","img/90_120.png","74","image-keyboard-response","161","167137","0.0-6.0-1.77","ADKI","3","m","rechts","22","","","object","j","90","true"
"null","<div style=""font-size:60px;"">+</div>","null","html-keyboard-response","162","167454","0.0-6.0-0.78","ADKI","3","m","rechts","22","","fixation","","","",""
"722","img/0_60.png","74","image-keyboard-response","163","168184","0.0-6.0-1.78","ADKI","3","m","rechts","22","","","object","j","0","true"
"null","<div style=""font-size:60px;"">+</div>","null","html-keyboard-response","164","168501","0.0-6.0-0.79","ADKI","3","m","rechts","22","","fixation","","","",""
"1389","img/150_300.png","74","image-keyboard-response","165","169904","0.0-6.0-1.79","ADKI","3","m","rechts","22","","","object","j","150","true"
"null","<div style=""font-size:60px;"">+</div>","null","html-keyboard-response","166","170409","0.0-6.0-0.80","ADKI","3","m","rechts","22","","fixation","","","",""
"1202","img/90_240.png","74","image-keyboard-response","167","171625","0.0-6.0-1.80","ADKI","3","m","rechts","22","","","object","f","90","false"
"null","<div style=""font-size:60px;"">+</div>","null","html-keyboard-response","168","172080","0.0-6.0-0.81","ADKI","3","m","rechts","22","","fixation","","","",""
"645","img/0_150.png","74","image-keyboard-response","169","172738","0.0-6.0-1.81","ADKI","3","m","rechts","22","","","object","j","0","true"
"null","<div style=""font-size:60px;"">+</div>","null","html-keyboard-response","170","173190","0.0-6.0-0.82","ADKI","3","m","rechts","22","","fixation","","","",""
"744","img/30_90.png","74","image-keyboard-response","171","173943","0.0-6.0-1.82","ADKI","3","m","rechts","22","","","object","j","30","true"
"null","<div style=""font-size:60px;"">+</div>","null","html-keyboard-response","172","174361","0.0-6.0-0.83","ADKI","3","m","rechts","22","","fixation","","","",""
"941","img/90_330.png","74","image-keyboard-response","173","175316","0.0-6.0-1.83","ADKI","3","m","rechts","22","","","object","j","90","true"
"null","<div style=""font-size:60px;"">+</div>","null","html-keyboard-response","174","175720","0.0-6.0-0.84","ADKI","3","m","rechts","22","","fixation","","","",""
"1090","img/30_60.png","74","image-keyboard-response","175","176824","0.0-6.0-1.84","ADKI","3","m","rechts","22","","","object","j","30","true"
"null","<div style=""font-size:60px;"">+</div>","null","html-keyboard-response","176","177251","0.0-6.0-0.85","ADKI","3","m","rechts","22","","fixation","","","",""
"998","img/120_180.png","70","image-keyboard-response","177","178263","0.0-6.0-1.85","ADKI","3","m","rechts","22","","","object","f","120","true"
"null","<div style=""font-size:60px;"">+</div>","null","html-keyboard-response","178","178579","0.0-6.0-0.86","ADKI","3","m","rechts","22","","fixation","","","",""
"1192","img/150_60.png","70","image-keyboard-response","179","179781","0.0-6.0-1.86","ADKI","3","m","rechts","22","","","object","f","150","true"
"null","<div style=""font-size:60px;"">+</div>","null","html-keyboard-response","180","180097","0.0-6.0-0.87","ADKI","3","m","rechts","22","","fixation","","","",""
"1641","img/60_210.png","70","image-keyboard-response","181","181750","0.0-6.0-1.87","ADKI","3","m","rechts","22","","","object","f","60","true"
"null","<div style=""font-size:60px;"">+</div>","null","html-keyboard-response","182","182112","0.0-6.0-0.88","ADKI","3","m","rechts","22","","fixation","","","",""
"636","img/0_90.png","74","image-keyboard-response","183","182761","0.0-6.0-1.88","ADKI","3","m","rechts","22","","","object","j","0","true"
"null","<div style=""font-size:60px;"">+</div>","null","html-keyboard-response","184","183175","0.0-6.0-0.89","ADKI","3","m","rechts","22","","fixation","","","",""
"851","img/30_240.png","70","image-keyboard-response","185","184036","0.0-6.0-1.89","ADKI","3","m","rechts","22","","","object","f","30","true"
"null","<div style=""font-size:60px;"">+</div>","null","html-keyboard-response","186","184550","0.0-6.0-0.90","ADKI","3","m","rechts","22","","fixation","","","",""
"666","img/0_30.png","74","image-keyboard-response","187","185227","0.0-6.0-1.90","ADKI","3","m","rechts","22","","","object","j","0","true"
"null","<div style=""font-size:60px;"">+</div>","null","html-keyboard-response","188","185629","0.0-6.0-0.91","ADKI","3","m","rechts","22","","fixation","","","",""
"1340","img/30_120.png","74","image-keyboard-response","189","186983","0.0-6.0-1.91","ADKI","3","m","rechts","22","","","object","j","30","true"
"null","<div style=""font-size:60px;"">+</div>","null","html-keyboard-response","190","187364","0.0-6.0-0.92","ADKI","3","m","rechts","22","","fixation","","","",""
"932","img/60_90.png","74","image-keyboard-response","191","188311","0.0-6.0-1.92","ADKI","3","m","rechts","22","","","object","j","60","true"
"null","<div style=""font-size:60px;"">+</div>","null","html-keyboard-response","192","188677","0.0-6.0-0.93","ADKI","3","m","rechts","22","","fixation","","","",""
"689","img/0_300.png","70","image-keyboard-response","193","189380","0.0-6.0-1.93","ADKI","3","m","rechts","22","","","object","f","0","true"
"null","<div style=""font-size:60px;"">+</div>","null","html-keyboard-response","194","189895","0.0-6.0-0.94","ADKI","3","m","rechts","22","","fixation","","","",""
"965","img/120_30.png","70","image-keyboard-response","195","190874","0.0-6.0-1.94","ADKI","3","m","rechts","22","","","object","f","120","true"
"null","<div style=""font-size:60px;"">+</div>","null","html-keyboard-response","196","191333","0.0-6.0-0.95","ADKI","3","m","rechts","22","","fixation","","","",""
"1215","img/150_270.png","74","image-keyboard-response","197","192563","0.0-6.0-1.95","ADKI","3","m","rechts","22","","","object","j","150","true"
"null","<div style=""font-size:60px;"">+</div>","null","html-keyboard-response","198","193081","0.0-6.0-0.96","ADKI","3","m","rechts","22","","fixation","","","",""
"1395","img/L120_180.png","74","image-keyboard-response","199","194486","0.0-6.0-1.96","ADKI","3","m","rechts","22","","","object","j","120","true"
"null","<div style=""font-size:60px;"">+</div>","null","html-keyboard-response","200","194800","0.0-6.0-0.97","ADKI","3","m","rechts","22","","fixation","","","",""
"681","img/0_270.png","70","image-keyboard-response","201","195487","0.0-6.0-1.97","ADKI","3","m","rechts","22","","","object","f","0","true"
"null","<div style=""font-size:60px;"">+</div>","null","html-keyboard-response","202","195802","0.0-6.0-0.98","ADKI","3","m","rechts","22","","fixation","","","",""
"920","img/120_150.png","74","image-keyboard-response","203","196735","0.0-6.0-1.98","ADKI","3","m","rechts","22","","","object","j","120","true"
"null","<div style=""font-size:60px;"">+</div>","null","html-keyboard-response","204","197146","0.0-6.0-0.99","ADKI","3","m","rechts","22","","fixation","","","",""
"691","img/60_330.png","74","image-keyboard-response","205","197850","0.0-6.0-1.99","ADKI","3","m","rechts","22","","","object","j","60","true"
"null","<div style=""font-size:60px;"">+</div>","null","html-keyboard-response","206","198162","0.0-6.0-0.100","ADKI","3","m","rechts","22","","fixation","","","",""
"1160","img/30_300.png","70","image-keyboard-response","207","199335","0.0-6.0-1.100","ADKI","3","m","rechts","22","","","object","f","30","true"
"null","<div style=""font-size:60px;"">+</div>","null","html-keyboard-response","208","199802","0.0-6.0-0.101","ADKI","3","m","rechts","22","","fixation","","","",""
"969","img/120_270.png","74","image-keyboard-response","209","200785","0.0-6.0-1.101","ADKI","3","m","rechts","22","","","object","j","120","true"
"null","<div style=""font-size:60px;"">+</div>","null","html-keyboard-response","210","201162","0.0-6.0-0.102","ADKI","3","m","rechts","22","","fixation","","","",""
"973","img/L90_180.png","74","image-keyboard-response","211","202148","0.0-6.0-1.102","ADKI","3","m","rechts","22","","","object","j","90","true"
"null","<div style=""font-size:60px;"">+</div>","null","html-keyboard-response","212","202614","0.0-6.0-0.103","ADKI","3","m","rechts","22","","fixation","","","",""
"633","img/60_30.png","70","image-keyboard-response","213","203261","0.0-6.0-1.103","ADKI","3","m","rechts","22","","","object","f","60","true"
"null","<div style=""font-size:60px;"">+</div>","null","html-keyboard-response","214","203629","0.0-6.0-0.104","ADKI","3","m","rechts","22","","fixation","","","",""
"838","img/120_270.png","74","image-keyboard-response","215","204477","0.0-6.0-1.104","ADKI","3","m","rechts","22","","","object","j","120","true"
"null","<div style=""font-size:60px;"">+</div>","null","html-keyboard-response","216","204943","0.0-6.0-0.105","ADKI","3","m","rechts","22","","fixation","","","",""
"1143","img/30_240.png","70","image-keyboard-response","217","206096","0.0-6.0-1.105","ADKI","3","m","rechts","22","","","object","f","30","true"
"null","<div style=""font-size:60px;"">+</div>","null","html-keyboard-response","218","206460","0.0-6.0-0.106","ADKI","3","m","rechts","22","","fixation","","","",""
"860","img/90_30.png","70","image-keyboard-response","219","207334","0.0-6.0-1.106","ADKI","3","m","rechts","22","","","object","f","90","true"
"null","<div style=""font-size:60px;"">+</div>","null","html-keyboard-response","220","207694","0.0-6.0-0.107","ADKI","3","m","rechts","22","","fixation","","","",""
"1047","img/90_330.png","74","image-keyboard-response","221","208751","0.0-6.0-1.107","ADKI","3","m","rechts","22","","","object","j","90","true"
"null","<div style=""font-size:60px;"">+</div>","null","html-keyboard-response","222","209273","0.0-6.0-0.108","ADKI","3","m","rechts","22","","fixation","","","",""
"865","img/L90_180.png","74","image-keyboard-response","223","210147","0.0-6.0-1.108","ADKI","3","m","rechts","22","","","object","j","90","true"
"null","<div style=""font-size:60px;"">+</div>","null","html-keyboard-response","224","210601","0.0-6.0-0.109","ADKI","3","m","rechts","22","","fixation","","","",""
"1853","img/90_120.png","74","image-keyboard-response","225","212464","0.0-6.0-1.109","ADKI","3","m","rechts","22","","","object","j","90","true"
"null","<div style=""font-size:60px;"">+</div>","null","html-keyboard-response","226","212819","0.0-6.0-0.110","ADKI","3","m","rechts","22","","fixation","","","",""
"1295","img/30_180.png","70","image-keyboard-response","227","214127","0.0-6.0-1.110","ADKI","3","m","rechts","22","","","object","f","30","true"
"null","<div style=""font-size:60px;"">+</div>","null","html-keyboard-response","228","214632","0.0-6.0-0.111","ADKI","3","m","rechts","22","","fixation","","","",""
"803","img/90_180.png","70","image-keyboard-response","229","215446","0.0-6.0-1.111","ADKI","3","m","rechts","22","","","object","f","90","true"
"null","<div style=""font-size:60px;"">+</div>","null","html-keyboard-response","230","215961","0.0-6.0-0.112","ADKI","3","m","rechts","22","","fixation","","","",""
"753","img/90_150.png","74","image-keyboard-response","231","216728","0.0-6.0-1.112","ADKI","3","m","rechts","22","","","object","j","90","true"
"null","<div style=""font-size:60px;"">+</div>","null","html-keyboard-response","232","217196","0.0-6.0-0.113","ADKI","3","m","rechts","22","","fixation","","","",""
"1423","img/150_240.png","74","image-keyboard-response","233","218629","0.0-6.0-1.113","ADKI","3","m","rechts","22","","","object","j","150","true"
"null","<div style=""font-size:60px;"">+</div>","null","html-keyboard-response","234","219101","0.0-6.0-0.114","ADKI","3","m","rechts","22","","fixation","","","",""
"1429","img/L30_180.png","74","image-keyboard-response","235","220542","0.0-6.0-1.114","ADKI","3","m","rechts","22","","","object","j","30","true"
"null","<div style=""font-size:60px;"">+</div>","null","html-keyboard-response","236","221057","0.0-6.0-0.115","ADKI","3","m","rechts","22","","fixation","","","",""
"1229","img/150_90.png","70","image-keyboard-response","237","222296","0.0-6.0-1.115","ADKI","3","m","rechts","22","","","object","f","150","true"
"null","<div style=""font-size:60px;"">+</div>","null","html-keyboard-response","238","222775","0.0-6.0-0.116","ADKI","3","m","rechts","22","","fixation","","","",""
"966","img/30_90.png","74","image-keyboard-response","239","223746","0.0-6.0-1.116","ADKI","3","m","rechts","22","","","object","j","30","true"
"null","<div style=""font-size:60px;"">+</div>","null","html-keyboard-response","240","224104","0.0-6.0-0.117","ADKI","3","m","rechts","22","","fixation","","","",""
"1601","img/150_300.png","74","image-keyboard-response","241","225716","0.0-6.0-1.117","ADKI","3","m","rechts","22","","","object","j","150","true"
"null","<div style=""font-size:60px;"">+</div>","null","html-keyboard-response","242","226042","0.0-6.0-0.118","ADKI","3","m","rechts","22","","fixation","","","",""
"2221","img/60_90.png","74","image-keyboard-response","243","228270","0.0-6.0-1.118","ADKI","3","m","rechts","22","","","object","j","60","true"
"null","<div style=""font-size:60px;"">+</div>","null","html-keyboard-response","244","228573","0.0-6.0-0.119","ADKI","3","m","rechts","22","","fixation","","","",""
"1233","img/150_180.png","70","image-keyboard-response","245","229821","0.0-6.0-1.119","ADKI","3","m","rechts","22","","","object","f","150","true"
"null","<div style=""font-size:60px;"">+</div>","null","html-keyboard-response","246","230325","0.0-6.0-0.120","ADKI","3","m","rechts","22","","fixation","","","",""
"1397","img/60_180.png","70","image-keyboard-response","247","231736","0.0-6.0-1.120","ADKI","3","m","rechts","22","","","object","f","60","true"
"null","<div style=""font-size:60px;"">+</div>","null","html-keyboard-response","248","232169","0.0-6.0-0.121","ADKI","3","m","rechts","22","","fixation","","","",""
"997","img/L120_180.png","74","image-keyboard-response","249","233175","0.0-6.0-1.121","ADKI","3","m","rechts","22","","","object","j","120","true"
"null","<div style=""font-size:60px;"">+</div>","null","html-keyboard-response","250","233481","0.0-6.0-0.122","ADKI","3","m","rechts","22","","fixation","","","",""
"1038","img/60_210.png","70","image-keyboard-response","251","234528","0.0-6.0-1.122","ADKI","3","m","rechts","22","","","object","f","60","true"
"null","<div style=""font-size:60px;"">+</div>","null","html-keyboard-response","252","234996","0.0-6.0-0.123","ADKI","3","m","rechts","22","","fixation","","","",""
"936","img/120_150.png","74","image-keyboard-response","253","235941","0.0-6.0-1.123","ADKI","3","m","rechts","22","","","object","j","120","true"
"null","<div style=""font-size:60px;"">+</div>","null","html-keyboard-response","254","236420","0.0-6.0-0.124","ADKI","3","m","rechts","22","","fixation","","","",""
"693","img/0_120.png","74","image-keyboard-response","255","237124","0.0-6.0-1.124","ADKI","3","m","rechts","22","","","object","j","0","true"
"null","<div style=""font-size:60px;"">+</div>","null","html-keyboard-response","256","237529","0.0-6.0-0.125","ADKI","3","m","rechts","22","","fixation","","","",""
"610","img/0_330.png","70","image-keyboard-response","257","238153","0.0-6.0-1.125","ADKI","3","m","rechts","22","","","object","f","0","true"
"null","<div style=""font-size:60px;"">+</div>","null","html-keyboard-response","258","238466","0.0-6.0-0.126","ADKI","3","m","rechts","22","","fixation","","","",""
"1603","img/30_270.png","70","image-keyboard-response","259","240084","0.0-6.0-1.126","ADKI","3","m","rechts","22","","","object","f","30","true"
"null","<div style=""font-size:60px;"">+</div>","null","html-keyboard-response","260","240590","0.0-6.0-0.127","ADKI","3","m","rechts","22","","fixation","","","",""
"660","img/0_60.png","74","image-keyboard-response","261","241264","0.0-6.0-1.127","ADKI","3","m","rechts","22","","","object","j","0","true"
"null","<div style=""font-size:60px;"">+</div>","null","html-keyboard-response","262","241684","0.0-6.0-0.128","ADKI","3","m","rechts","22","","fixation","","","",""
"1127","img/30_120.png","74","image-keyboard-response","263","242815","0.0-6.0-1.128","ADKI","3","m","rechts","22","","","object","j","30","true"
"null","<div style=""font-size:60px;"">+</div>","null","html-keyboard-response","264","243278","0.0-6.0-0.129","ADKI","3","m","rechts","22","","fixation","","","",""
"875","img/90_60.png","70","image-keyboard-response","265","244166","0.0-6.0-1.129","ADKI","3","m","rechts","22","","","object","f","90","true"
"null","<div style=""font-size:60px;"">+</div>","null","html-keyboard-response","266","244497","0.0-6.0-0.130","ADKI","3","m","rechts","22","","fixation","","","",""
"1007","img/120_210.png","70","image-keyboard-response","267","245518","0.0-6.0-1.130","ADKI","3","m","rechts","22","","","object","f","120","true"
"null","<div style=""font-size:60px;"">+</div>","null","html-keyboard-response","268","245843","0.0-6.0-0.131","ADKI","3","m","rechts","22","","fixation","","","",""
"1865","img/60_270.png","70","image-keyboard-response","269","247722","0.0-6.0-1.131","ADKI","3","m","rechts","22","","","object","f","60","true"
"null","<div style=""font-size:60px;"">+</div>","null","html-keyboard-response","270","248186","0.0-6.0-0.132","ADKI","3","m","rechts","22","","fixation","","","",""
"2126","img/90_240.png","70","image-keyboard-response","271","250321","0.0-6.0-1.132","ADKI","3","m","rechts","22","","","object","f","90","true"
"null","<div style=""font-size:60px;"">+</div>","null","html-keyboard-response","272","250748","0.0-6.0-0.133","ADKI","3","m","rechts","22","","fixation","","","",""
"1421","img/120_90.png","70","image-keyboard-response","273","252188","0.0-6.0-1.133","ADKI","3","m","rechts","22","","","object","f","120","true"
"null","<div style=""font-size:60px;"">+</div>","null","html-keyboard-response","274","252608","0.0-6.0-0.134","ADKI","3","m","rechts","22","","fixation","","","",""
"793","img/0_240.png","70","image-keyboard-response","275","253415","0.0-6.0-1.134","ADKI","3","m","rechts","22","","","object","f","0","true"
"null","<div style=""font-size:60px;"">+</div>","null","html-keyboard-response","276","253843","0.0-6.0-0.135","ADKI","3","m","rechts","22","","fixation","","","",""
"964","img/60_150.png","74","image-keyboard-response","277","254819","0.0-6.0-1.135","ADKI","3","m","rechts","22","","","object","j","60","true"
"null","<div style=""font-size:60px;"">+</div>","null","html-keyboard-response","278","255329","0.0-6.0-0.136","ADKI","3","m","rechts","22","","fixation","","","",""
"930","img/150_60.png","70","image-keyboard-response","279","256273","0.0-6.0-1.136","ADKI","3","m","rechts","22","","","object","f","150","true"
"null","<div style=""font-size:60px;"">+</div>","null","html-keyboard-response","280","256782","0.0-6.0-0.137","ADKI","3","m","rechts","22","","fixation","","","",""
"629","img/120_30.png","70","image-keyboard-response","281","257419","0.0-6.0-1.137","ADKI","3","m","rechts","22","","","object","f","120","true"
"null","<div style=""font-size:60px;"">+</div>","null","html-keyboard-response","282","257735","0.0-6.0-0.138","ADKI","3","m","rechts","22","","fixation","","","",""
"766","img/60_330.png","74","image-keyboard-response","283","258511","0.0-6.0-1.138","ADKI","3","m","rechts","22","","","object","j","60","true"
"null","<div style=""font-size:60px;"">+</div>","null","html-keyboard-response","284","258875","0.0-6.0-0.139","ADKI","3","m","rechts","22","","fixation","","","",""
"975","img/30_60.png","74","image-keyboard-response","285","259861","0.0-6.0-1.139","ADKI","3","m","rechts","22","","","object","j","30","true"
"null","<div style=""font-size:60px;"">+</div>","null","html-keyboard-response","286","260330","0.0-6.0-0.140","ADKI","3","m","rechts","22","","fixation","","","",""
"845","img/90_210.png","70","image-keyboard-response","287","261189","0.0-6.0-1.140","ADKI","3","m","rechts","22","","","object","f","90","true"
"null","<div style=""font-size:60px;"">+</div>","null","html-keyboard-response","288","261517","0.0-6.0-0.141","ADKI","3","m","rechts","22","","fixation","","","",""
"931","img/150_270.png","74","image-keyboard-response","289","262459","0.0-6.0-1.141","ADKI","3","m","rechts","22","","","object","j","150","true"
"null","<div style=""font-size:60px;"">+</div>","null","html-keyboard-response","290","262813","0.0-6.0-0.142","ADKI","3","m","rechts","22","","fixation","","","",""
"951","img/120_180.png","70","image-keyboard-response","291","263775","0.0-6.0-1.142","ADKI","3","m","rechts","22","","","object","f","120","true"
"null","<div style=""font-size:60px;"">+</div>","null","html-keyboard-response","292","264250","0.0-6.0-0.143","ADKI","3","m","rechts","22","","fixation","","","",""
"884","img/0_150.png","74","image-keyboard-response","293","265148","0.0-6.0-1.143","ADKI","3","m","rechts","22","","","object","j","0","true"
"null","<div style=""font-size:60px;"">+</div>","null","html-keyboard-response","294","265655","0.0-6.0-0.144","ADKI","3","m","rechts","22","","fixation","","","",""
"829","img/L150_180.png","74","image-keyboard-response","295","266499","0.0-6.0-1.144","ADKI","3","m","rechts","22","","","object","j","150","true"
"null","<div style=""font-size:60px;"">+</div>","null","html-keyboard-response","296","267015","0.0-6.0-0.145","ADKI","3","m","rechts","22","","fixation","","","",""
"707","img/0_30.png","74","image-keyboard-response","297","267736","0.0-6.0-1.145","ADKI","3","m","rechts","22","","","object","j","0","true"
"null","<div style=""font-size:60px;"">+</div>","null","html-keyboard-response","298","268047","0.0-6.0-0.146","ADKI","3","m","rechts","22","","fixation","","","",""
"1744","img/150_120.png","70","image-keyboard-response","299","269805","0.0-6.0-1.146","ADKI","3","m","rechts","22","","","object","f","150","true"
"null","<div style=""font-size:60px;"">+</div>","null","html-keyboard-response","300","270158","0.0-6.0-0.147","ADKI","3","m","rechts","22","","fixation","","","",""
"1129","img/L60_180.png","74","image-keyboard-response","301","271302","0.0-6.0-1.147","ADKI","3","m","rechts","22","","","object","j","60","true"
"null","<div style=""font-size:60px;"">+</div>","null","html-keyboard-response","302","271658","0.0-6.0-0.148","ADKI","3","m","rechts","22","","fixation","","","",""
"709","img/0_90.png","74","image-keyboard-response","303","272382","0.0-6.0-1.148","ADKI","3","m","rechts","22","","","object","j","0","true"
"null","<div style=""font-size:60px;"">+</div>","null","html-keyboard-response","304","272813","0.0-6.0-0.149","ADKI","3","m","rechts","22","","fixation","","","",""
"607","img/0_270.png","70","image-keyboard-response","305","273428","0.0-6.0-1.149","ADKI","3","m","rechts","22","","","object","f","0","true"
"null","<div style=""font-size:60px;"">+</div>","null","html-keyboard-response","306","273798","0.0-6.0-0.150","ADKI","3","m","rechts","22","","fixation","","","",""
"1526","img/60_30.png","70","image-keyboard-response","307","275331","0.0-6.0-1.150","ADKI","3","m","rechts","22","","","object","f","60","true"
"null","<div style=""font-size:60px;"">+</div>","null","html-keyboard-response","308","275798","0.0-6.0-0.151","ADKI","3","m","rechts","22","","fixation","","","",""
"692","img/0_300.png","70","image-keyboard-response","309","276499","0.0-6.0-1.151","ADKI","3","m","rechts","22","","","object","f","0","true"
"null","<div style=""font-size:60px;"">+</div>","null","html-keyboard-response","310","276954","0.0-6.0-0.152","ADKI","3","m","rechts","22","","fixation","","","",""
"1166","img/30_300.png","70","image-keyboard-response","311","278132","0.0-6.0-1.152","ADKI","3","m","rechts","22","","","object","f","30","true"
"null","<div style=""font-size:60px;"">+</div>","null","html-keyboard-response","312","278595","0.0-6.0-0.153","ADKI","3","m","rechts","22","","fixation","","","",""
"670","img/0_210.png","70","image-keyboard-response","313","279279","0.0-6.0-1.153","ADKI","3","m","rechts","22","","","object","f","0","true"
"null","<div style=""font-size:60px;"">+</div>","null","html-keyboard-response","314","279658","0.0-6.0-0.154","ADKI","3","m","rechts","22","","fixation","","","",""
"834","img/120_330.png","74","image-keyboard-response","315","280505","0.0-6.0-1.154","ADKI","3","m","rechts","22","","","object","j","120","true"
"null","<div style=""font-size:60px;"">+</div>","null","html-keyboard-response","316","280988","0.0-6.0-0.155","ADKI","3","m","rechts","22","","fixation","","","",""
"693","img/90_300.png","74","image-keyboard-response","317","281697","0.0-6.0-1.155","ADKI","3","m","rechts","22","","","object","j","90","true"
"null","<div style=""font-size:60px;"">+</div>","null","html-keyboard-response","318","282176","0.0-6.0-0.156","ADKI","3","m","rechts","22","","fixation","","","",""
"739","img/150_60.png","70","image-keyboard-response","319","282924","0.0-6.0-1.156","ADKI","3","m","rechts","22","","","object","f","150","true"
"null","<div style=""font-size:60px;"">+</div>","null","html-keyboard-response","320","283283","0.0-6.0-0.157","ADKI","3","m","rechts","22","","fixation","","","",""
"1171","img/150_300.png","74","image-keyboard-response","321","284464","0.0-6.0-1.157","ADKI","3","m","rechts","22","","","object","j","150","true"
"null","<div style=""font-size:60px;"">+</div>","null","html-keyboard-response","322","284988","0.0-6.0-0.158","ADKI","3","m","rechts","22","","fixation","","","",""
"2164","img/90_120.png","74","image-keyboard-response","323","287165","0.0-6.0-1.158","ADKI","3","m","rechts","22","","","object","j","90","true"
"null","<div style=""font-size:60px;"">+</div>","null","html-keyboard-response","324","287642","0.0-6.0-0.159","ADKI","3","m","rechts","22","","fixation","","","",""
"737","img/150_120.png","70","image-keyboard-response","325","288391","0.0-6.0-1.159","ADKI","3","m","rechts","22","","","object","f","150","true"
"null","<div style=""font-size:60px;"">+</div>","null","html-keyboard-response","326","288846","0.0-6.0-0.160","ADKI","3","m","rechts","22","","fixation","","","",""
"773","img/0_90.png","74","image-keyboard-response","327","289629","0.0-6.0-1.160","ADKI","3","m","rechts","22","","","object","j","0","true"
"null","<div style=""font-size:60px;"">+</div>","null","html-keyboard-response","328","290145","0.0-6.0-0.161","ADKI","3","m","rechts","22","","fixation","","","",""
"1090","img/120_150.png","74","image-keyboard-response","329","291248","0.0-6.0-1.161","ADKI","3","m","rechts","22","","","object","j","120","true"
"null","<div style=""font-size:60px;"">+</div>","null","html-keyboard-response","330","291677","0.0-6.0-0.162","ADKI","3","m","rechts","22","","fixation","","","",""
"879","img/60_30.png","70","image-keyboard-response","331","292565","0.0-6.0-1.162","ADKI","3","m","rechts","22","","","object","f","60","true"
"null","<div style=""font-size:60px;"">+</div>","null","html-keyboard-response","332","293083","0.0-6.0-0.163","ADKI","3","m","rechts","22","","fixation","","","",""
"1115","img/60_270.png","70","image-keyboard-response","333","294207","0.0-6.0-1.163","ADKI","3","m","rechts","22","","","object","f","60","true"
"null","<div style=""font-size:60px;"">+</div>","null","html-keyboard-response","334","294739","0.0-6.0-0.164","ADKI","3","m","rechts","22","","fixation","","","",""
"761","img/0_330.png","70","image-keyboard-response","335","295512","0.0-6.0-1.164","ADKI","3","m","rechts","22","","","object","f","0","true"
"null","<div style=""font-size:60px;"">+</div>","null","html-keyboard-response","336","295944","0.0-6.0-0.165","ADKI","3","m","rechts","22","","fixation","","","",""
"953","img/120_180.png","70","image-keyboard-response","337","296907","0.0-6.0-1.165","ADKI","3","m","rechts","22","","","object","f","120","true"
"null","<div style=""font-size:60px;"">+</div>","null","html-keyboard-response","338","297272","0.0-6.0-0.166","ADKI","3","m","rechts","22","","fixation","","","",""
"963","img/30_240.png","70","image-keyboard-response","339","298246","0.0-6.0-1.166","ADKI","3","m","rechts","22","","","object","f","30","true"
"null","<div style=""font-size:60px;"">+</div>","null","html-keyboard-response","340","298568","0.0-6.0-0.167","ADKI","3","m","rechts","22","","fixation","","","",""
"793","img/120_330.png","74","image-keyboard-response","341","299371","0.0-6.0-1.167","ADKI","3","m","rechts","22","","","object","j","120","true"
"null","<div style=""font-size:60px;"">+</div>","null","html-keyboard-response","342","299687","0.0-6.0-0.168","ADKI","3","m","rechts","22","","fixation","","","",""
"934","img/30_60.png","70","image-keyboard-response","343","300632","0.0-6.0-1.168","ADKI","3","m","rechts","22","","","object","j","30","false"
"null","<div style=""font-size:60px;"">+</div>","null","html-keyboard-response","344","301062","0.0-6.0-0.169","ADKI","3","m","rechts","22","","fixation","","","",""
"1359","img/30_180.png","70","image-keyboard-response","345","302430","0.0-6.0-1.169","ADKI","3","m","rechts","22","","","object","f","30","true"
"null","<div style=""font-size:60px;"">+</div>","null","html-keyboard-response","346","302842","0.0-6.0-0.170","ADKI","3","m","rechts","22","","fixation","","","",""
"789","img/0_120.png","74","image-keyboard-response","347","303635","0.0-6.0-1.170","ADKI","3","m","rechts","22","","","object","j","0","true"
"null","<div style=""font-size:60px;"">+</div>","null","html-keyboard-response","348","303952","0.0-6.0-0.171","ADKI","3","m","rechts","22","","fixation","","","",""
"734","img/90_180.png","70","image-keyboard-response","349","304703","0.0-6.0-1.171","ADKI","3","m","rechts","22","","","object","f","90","true"
"null","<div style=""font-size:60px;"">+</div>","null","html-keyboard-response","350","305014","0.0-6.0-0.172","ADKI","3","m","rechts","22","","fixation","","","",""
"1575","img/150_90.png","70","image-keyboard-response","351","306605","0.0-6.0-1.172","ADKI","3","m","rechts","22","","","object","f","150","true"
"null","<div style=""font-size:60px;"">+</div>","null","html-keyboard-response","352","307032","0.0-6.0-0.173","ADKI","3","m","rechts","22","","fixation","","","",""
"834","img/30_270.png","70","image-keyboard-response","353","307876","0.0-6.0-1.173","ADKI","3","m","rechts","22","","","object","f","30","true"
"null","<div style=""font-size:60px;"">+</div>","null","html-keyboard-response","354","308188","0.0-6.0-0.174","ADKI","3","m","rechts","22","","fixation","","","",""
"756","img/L120_180.png","74","image-keyboard-response","355","308957","0.0-6.0-1.174","ADKI","3","m","rechts","22","","","object","j","120","true"
"null","<div style=""font-size:60px;"">+</div>","null","html-keyboard-response","356","309329","0.0-6.0-0.175","ADKI","3","m","rechts","22","","fixation","","","",""
"1328","img/30_300.png","70","image-keyboard-response","357","310666","0.0-6.0-1.175","ADKI","3","m","rechts","22","","","object","f","30","true"
"null","<div style=""font-size:60px;"">+</div>","null","html-keyboard-response","358","311187","0.0-6.0-0.176","ADKI","3","m","rechts","22","","fixation","","","",""
"1176","img/120_270.png","74","image-keyboard-response","359","312378","0.0-6.0-1.176","ADKI","3","m","rechts","22","","","object","j","120","true"
"null","<div style=""font-size:60px;"">+</div>","null","html-keyboard-response","360","312780","0.0-6.0-0.177","ADKI","3","m","rechts","22","","fixation","","","",""
"728","img/0_30.png","74","image-keyboard-response","361","313513","0.0-6.0-1.177","ADKI","3","m","rechts","22","","","object","j","0","true"
"null","<div style=""font-size:60px;"">+</div>","null","html-keyboard-response","362","313922","0.0-6.0-0.178","ADKI","3","m","rechts","22","","fixation","","","",""
"706","img/90_60.png","70","image-keyboard-response","363","314638","0.0-6.0-1.178","ADKI","3","m","rechts","22","","","object","f","90","true"
"null","<div style=""font-size:60px;"">+</div>","null","html-keyboard-response","364","315047","0.0-6.0-0.179","ADKI","3","m","rechts","22","","fixation","","","",""
"750","img/0_300.png","70","image-keyboard-response","365","315807","0.0-6.0-1.179","ADKI","3","m","rechts","22","","","object","f","0","true"
"null","<div style=""font-size:60px;"">+</div>","null","html-keyboard-response","366","316112","0.0-6.0-0.180","ADKI","3","m","rechts","22","","fixation","","","",""
"664","img/0_270.png","70","image-keyboard-response","367","316785","0.0-6.0-1.180","ADKI","3","m","rechts","22","","","object","f","0","true"
"null","<div style=""font-size:60px;"">+</div>","null","html-keyboard-response","368","317299","0.0-6.0-0.181","ADKI","3","m","rechts","22","","fixation","","","",""
"1792","img/60_210.png","70","image-keyboard-response","369","319104","0.0-6.0-1.181","ADKI","3","m","rechts","22","","","object","f","60","true"
"null","<div style=""font-size:60px;"">+</div>","null","html-keyboard-response","370","319424","0.0-6.0-0.182","ADKI","3","m","rechts","22","","fixation","","","",""
"659","img/0_60.png","74","image-keyboard-response","371","320094","0.0-6.0-1.182","ADKI","3","m","rechts","22","","","object","j","0","true"
"null","<div style=""font-size:60px;"">+</div>","null","html-keyboard-response","372","320547","0.0-6.0-0.183","ADKI","3","m","rechts","22","","fixation","","","",""
"873","img/60_180.png","70","image-keyboard-response","373","321433","0.0-6.0-1.183","ADKI","3","m","rechts","22","","","object","f","60","true"
"null","<div style=""font-size:60px;"">+</div>","null","html-keyboard-response","374","321892","0.0-6.0-0.184","ADKI","3","m","rechts","22","","fixation","","","",""
"843","img/90_30.png","70","image-keyboard-response","375","322748","0.0-6.0-1.184","ADKI","3","m","rechts","22","","","object","f","90","true"
"null","<div style=""font-size:60px;"">+</div>","null","html-keyboard-response","376","323158","0.0-6.0-0.185","ADKI","3","m","rechts","22","","fixation","","","",""
"1119","img/L90_180.png","74","image-keyboard-response","377","324291","0.0-6.0-1.185","ADKI","3","m","rechts","22","","","object","j","90","true"
"null","<div style=""font-size:60px;"">+</div>","null","html-keyboard-response","378","324751","0.0-6.0-0.186","ADKI","3","m","rechts","22","","fixation","","","",""
"992","img/60_150.png","74","image-keyboard-response","379","325753","0.0-6.0-1.186","ADKI","3","m","rechts","22","","","object","j","60","true"
"null","<div style=""font-size:60px;"">+</div>","null","html-keyboard-response","380","326157","0.0-6.0-0.187","ADKI","3","m","rechts","22","","fixation","","","",""
"1072","img/90_210.png","70","image-keyboard-response","381","327239","0.0-6.0-1.187","ADKI","3","m","rechts","22","","","object","f","90","true"
"null","<div style=""font-size:60px;"">+</div>","null","html-keyboard-response","382","327547","0.0-6.0-0.188","ADKI","3","m","rechts","22","","fixation","","","",""
"870","img/90_150.png","74","image-keyboard-response","383","328430","0.0-6.0-1.188","ADKI","3","m","rechts","22","","","object","j","90","true"
"null","<div style=""font-size:60px;"">+</div>","null","html-keyboard-response","384","328844","0.0-6.0-0.189","ADKI","3","m","rechts","22","","fixation","","","",""
"922","img/90_330.png","74","image-keyboard-response","385","329780","0.0-6.0-1.189","ADKI","3","m","rechts","22","","","object","j","90","true"
"null","<div style=""font-size:60px;"">+</div>","null","html-keyboard-response","386","330094","0.0-6.0-0.190","ADKI","3","m","rechts","22","","fixation","","","",""
"1127","img/L150_180.png","74","image-keyboard-response","387","331231","0.0-6.0-1.190","ADKI","3","m","rechts","22","","","object","j","150","true"
"null","<div style=""font-size:60px;"">+</div>","null","html-keyboard-response","388","331658","0.0-6.0-0.191","ADKI","3","m","rechts","22","","fixation","","","",""
"1403","img/150_270.png","74","image-keyboard-response","389","333077","0.0-6.0-1.191","ADKI","3","m","rechts","22","","","object","j","150","true"
"null","<div style=""font-size:60px;"">+</div>","null","html-keyboard-response","390","333487","0.0-6.0-0.192","ADKI","3","m","rechts","22","","fixation","","","",""
"1692","img/120_210.png","70","image-keyboard-response","391","335192","0.0-6.0-1.192","ADKI","3","m","rechts","22","","","object","f","120","true"
"null","<div style=""font-size:60px;"">+</div>","null","html-keyboard-response","392","335508","0.0-6.0-0.193","ADKI","3","m","rechts","22","","fixation","","","",""
"697","img/0_240.png","70","image-keyboard-response","393","336215","0.0-6.0-1.193","ADKI","3","m","rechts","22","","","object","f","0","true"
"null","<div style=""font-size:60px;"">+</div>","null","html-keyboard-response","394","336616","0.0-6.0-0.194","ADKI","3","m","rechts","22","","fixation","","","",""
"1038","img/150_180.png","70","image-keyboard-response","395","337667","0.0-6.0-1.194","ADKI","3","m","rechts","22","","","object","f","150","true"
"null","<div style=""font-size:60px;"">+</div>","null","html-keyboard-response","396","338084","0.0-6.0-0.195","ADKI","3","m","rechts","22","","fixation","","","",""
"787","img/90_300.png","74","image-keyboard-response","397","338881","0.0-6.0-1.195","ADKI","3","m","rechts","22","","","object","j","90","true"
"null","<div style=""font-size:60px;"">+</div>","null","html-keyboard-response","398","339398","0.0-6.0-0.196","ADKI","3","m","rechts","22","","fixation","","","",""
"710","img/0_210.png","70","image-keyboard-response","399","340121","0.0-6.0-1.196","ADKI","3","m","rechts","22","","","object","f","0","true"
"null","<div style=""font-size:60px;"">+</div>","null","html-keyboard-response","400","340602","0.0-6.0-0.197","ADKI","3","m","rechts","22","","fixation","","","",""
"1235","img/150_240.png","74","image-keyboard-response","401","341852","0.0-6.0-1.197","ADKI","3","m","rechts","22","","","object","j","150","true"
"null","<div style=""font-size:60px;"">+</div>","null","html-keyboard-response","402","342165","0.0-6.0-0.198","ADKI","3","m","rechts","22","","fixation","","","",""
"1185","img/0_150.png","74","image-keyboard-response","403","343360","0.0-6.0-1.198","ADKI","3","m","rechts","22","","","object","j","0","true"
"null","<div style=""font-size:60px;"">+</div>","null","html-keyboard-response","404","343836","0.0-6.0-0.199","ADKI","3","m","rechts","22","","fixation","","","",""
"1916","img/60_90.png","74","image-keyboard-response","405","345767","0.0-6.0-1.199","ADKI","3","m","rechts","22","","","object","j","60","true"
"null","<div style=""font-size:60px;"">+</div>","null","html-keyboard-response","406","346196","0.0-6.0-0.200","ADKI","3","m","rechts","22","","fixation","","","",""
"1312","img/30_120.png","74","image-keyboard-response","407","347521","0.0-6.0-1.200","ADKI","3","m","rechts","22","","","object","j","30","true"
"null","<div style=""font-size:60px;"">+</div>","null","html-keyboard-response","408","347836","0.0-6.0-0.201","ADKI","3","m","rechts","22","","fixation","","","",""
"1695","img/90_240.png","70","image-keyboard-response","409","349547","0.0-6.0-1.201","ADKI","3","m","rechts","22","","","object","f","90","true"
"null","<div style=""font-size:60px;"">+</div>","null","html-keyboard-response","410","350055","0.0-6.0-0.202","ADKI","3","m","rechts","22","","fixation","","","",""
"1312","img/120_90.png","70","image-keyboard-response","411","351381","0.0-6.0-1.202","ADKI","3","m","rechts","22","","","object","f","120","true"
"null","<div style=""font-size:60px;"">+</div>","null","html-keyboard-response","412","351759","0.0-6.0-0.203","ADKI","3","m","rechts","22","","fixation","","","",""
"708","img/60_330.png","74","image-keyboard-response","413","352482","0.0-6.0-1.203","ADKI","3","m","rechts","22","","","object","j","60","true"
"null","<div style=""font-size:60px;"">+</div>","null","html-keyboard-response","414","352900","0.0-6.0-0.204","ADKI","3","m","rechts","22","","fixation","","","",""
"1163","img/L60_180.png","74","image-keyboard-response","415","354070","0.0-6.0-1.204","ADKI","3","m","rechts","22","","","object","j","60","true"
"null","<div style=""font-size:60px;"">+</div>","null","html-keyboard-response","416","354525","0.0-6.0-0.205","ADKI","3","m","rechts","22","","fixation","","","",""
"2207","img/120_30.png","70","image-keyboard-response","417","356748","0.0-6.0-1.205","ADKI","3","m","rechts","22","","","object","f","120","true"
"null","<div style=""font-size:60px;"">+</div>","null","html-keyboard-response","418","357260","0.0-6.0-0.206","ADKI","3","m","rechts","22","","fixation","","","",""
"756","img/30_90.png","74","image-keyboard-response","419","358030","0.0-6.0-1.206","ADKI","3","m","rechts","22","","","object","j","30","true"
"null","<div style=""font-size:60px;"">+</div>","null","html-keyboard-response","420","358448","0.0-6.0-0.207","ADKI","3","m","rechts","22","","fixation","","","",""
"987","img/L30_180.png","74","image-keyboard-response","421","359449","0.0-6.0-1.207","ADKI","3","m","rechts","22","","","object","j","30","true"
"10508","<p>Du hast in 95% der Versuche korrekt entschieden.</p><p>Deine durchschnittliche Reaktionszeit war  1057ms.</p><p>Dr&uuml;cke eine beliebige Taste, um die Session zu beenden. Vielen Dank!</p>","32","html-keyboard-response","422","369963","0.0-7.0","ADKI","3","m","rechts","22","","","","","",""
