"rt","stimulus","key_press","trial_type","trial_index","time_elapsed","internal_node_id","subject","session","sex","handedness","age","responses","test_part","condition","correct_response","angle","correct"
"1299","<p>Mental Rotation Experiment.</p> <p>Dr&uuml;cke eine beliebige Taste, um anzufangen.</p>","13","html-keyboard-response","0","1336","0.0-0.0","ADKI","4","m","rechts","22","","","","","",""
"2203","","","survey-text","1","3540","0.0-1.0","ADKI","4","m","rechts","22","{""Q0"":""ADKI""}","","","","",""
"2088","","","survey-text","2","5629","0.0-2.0","ADKI","4","m","rechts","22","{""Q0"":""4""}","","","","",""
"2064","","","survey-multi-choice","3","7698","0.0-3.0","ADKI","4","m","rechts","22","{""Q0"":""m"",""Q1"":""rechts""}","","","","",""
"2385","","","survey-text","4","10085","0.0-4.0","ADKI","4","m","rechts","22","{""Q0"":""22""}","","","","",""
"20779","<p>Stell dir vor, dass du vor einem runden Tisch stehst, auf dem sich ein blauer Ball am Tischrand befindet. Entlang des Tischrands ist jeweils ein verschieden langer Pfeil. Nun bleibst du an deinem Platz vor dem Tisch und rotierst den Tisch entlang des Pfeils (gleiche Richtung und Länge). </p> <img src='img/30_180.png'></img> <br><p> Nachdem du diese (vorgestellte) Rotation durchgef&uuml;hrt hast, schau in Richtung der Tischmitte, und entscheide dann, ob der Ball links oder rechts von dir liegt.</p> <p>Dr&uuml;cke die <strong>'f'</strong>-Taste f&uuml;r links, die <strong>'j'</strong>-Taste f&uuml;r rechts.</p><br><p> Das Bild wird jeweils 1 Sekunde lang pr&auml;sentiert. Du hast 3 Sekunden Zeit eine Entscheidung zu treffen.</p>","74","html-keyboard-response","5","30871","0.0-5.0","ADKI","4","m","rechts","22","","","","","",""
"null","<div style=""font-size:60px;"">+</div>","null","html-keyboard-response","6","32418","0.0-6.0-0.0","ADKI","4","m","rechts","22","","fixation","","","",""
"1957","img/120_90.png","70","image-keyboard-response","7","34399","0.0-6.0-1.0","ADKI","4","m","rechts","22","","","object","f","120","true"
"null","<div style=""font-size:60px;"">+</div>","null","html-keyboard-response","8","34815","0.0-6.0-0.1","ADKI","4","m","rechts","22","","fixation","","","",""
"1345","img/150_60.png","70","image-keyboard-response","9","36170","0.0-6.0-1.1","ADKI","4","m","rechts","22","","","object","f","150","true"
"null","<div style=""font-size:60px;"">+</div>","null","html-keyboard-response","10","36499","0.0-6.0-0.2","ADKI","4","m","rechts","22","","fixation","","","",""
"833","img/0_120.png","74","image-keyboard-response","11","37352","0.0-6.0-1.2","ADKI","4","m","rechts","22","","","object","j","0","true"
"null","<div style=""font-size:60px;"">+</div>","null","html-keyboard-response","12","37778","0.0-6.0-0.3","ADKI","4","m","rechts","22","","fixation","","","",""
"719","img/L90_180.png","74","image-keyboard-response","13","38508","0.0-6.0-1.3","ADKI","4","m","rechts","22","","","object","j","90","true"
"null","<div style=""font-size:60px;"">+</div>","null","html-keyboard-response","14","38967","0.0-6.0-0.4","ADKI","4","m","rechts","22","","fixation","","","",""
"776","img/60_30.png","70","image-keyboard-response","15","39759","0.0-6.0-1.4","ADKI","4","m","rechts","22","","","object","f","60","true"
"null","<div style=""font-size:60px;"">+</div>","null","html-keyboard-response","16","40284","0.0-6.0-0.5","ADKI","4","m","rechts","22","","fixation","","","",""
"742","img/90_60.png","70","image-keyboard-response","17","41053","0.0-6.0-1.5","ADKI","4","m","rechts","22","","","object","f","90","true"
"null","<div style=""font-size:60px;"">+</div>","null","html-keyboard-response","18","41482","0.0-6.0-0.6","ADKI","4","m","rechts","22","","fixation","","","",""
"688","img/90_30.png","70","image-keyboard-response","19","42188","0.0-6.0-1.6","ADKI","4","m","rechts","22","","","object","f","90","true"
"null","<div style=""font-size:60px;"">+</div>","null","html-keyboard-response","20","42499","0.0-6.0-0.7","ADKI","4","m","rechts","22","","fixation","","","",""
"1066","img/30_60.png","74","image-keyboard-response","21","43583","0.0-6.0-1.7","ADKI","4","m","rechts","22","","","object","j","30","true"
"null","<div style=""font-size:60px;"">+</div>","null","html-keyboard-response","22","44106","0.0-6.0-0.8","ADKI","4","m","rechts","22","","fixation","","","",""
"832","img/L150_180.png","74","image-keyboard-response","23","44956","0.0-6.0-1.8","ADKI","4","m","rechts","22","","","object","j","150","true"
"null","<div style=""font-size:60px;"">+</div>","null","html-keyboard-response","24","45482","0.0-6.0-0.9","ADKI","4","m","rechts","22","","fixation","","","",""
"2339","img/150_270.png","74","image-keyboard-response","25","47841","0.0-6.0-1.9","ADKI","4","m","rechts","22","","","object","j","150","true"
"null","<div style=""font-size:60px;"">+</div>","null","html-keyboard-response","26","48148","0.0-6.0-0.10","ADKI","4","m","rechts","22","","fixation","","","",""
"884","img/150_180.png","70","image-keyboard-response","27","49050","0.0-6.0-1.10","ADKI","4","m","rechts","22","","","object","f","150","true"
"null","<div style=""font-size:60px;"">+</div>","null","html-keyboard-response","28","49413","0.0-6.0-0.11","ADKI","4","m","rechts","22","","fixation","","","",""
"892","img/60_270.png","70","image-keyboard-response","29","50322","0.0-6.0-1.11","ADKI","4","m","rechts","22","","","object","f","60","true"
"null","<div style=""font-size:60px;"">+</div>","null","html-keyboard-response","30","50726","0.0-6.0-0.12","ADKI","4","m","rechts","22","","fixation","","","",""
"878","img/60_90.png","74","image-keyboard-response","31","51627","0.0-6.0-1.12","ADKI","4","m","rechts","22","","","object","j","60","true"
"null","<div style=""font-size:60px;"">+</div>","null","html-keyboard-response","32","52008","0.0-6.0-0.13","ADKI","4","m","rechts","22","","fixation","","","",""
"1390","img/120_150.png","74","image-keyboard-response","33","53417","0.0-6.0-1.13","ADKI","4","m","rechts","22","","","object","j","120","true"
"null","<div style=""font-size:60px;"">+</div>","null","html-keyboard-response","34","53877","0.0-6.0-0.14","ADKI","4","m","rechts","22","","fixation","","","",""
"1093","img/150_240.png","70","image-keyboard-response","35","54992","0.0-6.0-1.14","ADKI","4","m","rechts","22","","","object","j","150","false"
"null","<div style=""font-size:60px;"">+</div>","null","html-keyboard-response","36","55408","0.0-6.0-0.15","ADKI","4","m","rechts","22","","fixation","","","",""
"1573","img/30_180.png","70","image-keyboard-response","37","56995","0.0-6.0-1.15","ADKI","4","m","rechts","22","","","object","f","30","true"
"null","<div style=""font-size:60px;"">+</div>","null","html-keyboard-response","38","57525","0.0-6.0-0.16","ADKI","4","m","rechts","22","","fixation","","","",""
"765","img/0_210.png","70","image-keyboard-response","39","58310","0.0-6.0-1.16","ADKI","4","m","rechts","22","","","object","f","0","true"
"null","<div style=""font-size:60px;"">+</div>","null","html-keyboard-response","40","58665","0.0-6.0-0.17","ADKI","4","m","rechts","22","","fixation","","","",""
"843","img/90_120.png","74","image-keyboard-response","41","59525","0.0-6.0-1.17","ADKI","4","m","rechts","22","","","object","j","90","true"
"null","<div style=""font-size:60px;"">+</div>","null","html-keyboard-response","42","59884","0.0-6.0-0.18","ADKI","4","m","rechts","22","","fixation","","","",""
"903","img/120_30.png","70","image-keyboard-response","43","60806","0.0-6.0-1.18","ADKI","4","m","rechts","22","","","object","f","120","true"
"null","<div style=""font-size:60px;"">+</div>","null","html-keyboard-response","44","61211","0.0-6.0-0.19","ADKI","4","m","rechts","22","","fixation","","","",""
"781","img/90_300.png","74","image-keyboard-response","45","62011","0.0-6.0-1.19","ADKI","4","m","rechts","22","","","object","j","90","true"
"null","<div style=""font-size:60px;"">+</div>","null","html-keyboard-response","46","62525","0.0-6.0-0.20","ADKI","4","m","rechts","22","","fixation","","","",""
"728","img/0_90.png","74","image-keyboard-response","47","63271","0.0-6.0-1.20","ADKI","4","m","rechts","22","","","object","j","0","true"
"null","<div style=""font-size:60px;"">+</div>","null","html-keyboard-response","48","63587","0.0-6.0-0.21","ADKI","4","m","rechts","22","","fixation","","","",""
"692","img/60_330.png","74","image-keyboard-response","49","64296","0.0-6.0-1.21","ADKI","4","m","rechts","22","","","object","j","60","true"
"null","<div style=""font-size:60px;"">+</div>","null","html-keyboard-response","50","64759","0.0-6.0-0.22","ADKI","4","m","rechts","22","","fixation","","","",""
"1787","img/90_210.png","70","image-keyboard-response","51","66557","0.0-6.0-1.22","ADKI","4","m","rechts","22","","","object","f","90","true"
"null","<div style=""font-size:60px;"">+</div>","null","html-keyboard-response","52","66869","0.0-6.0-0.23","ADKI","4","m","rechts","22","","fixation","","","",""
"737","img/60_150.png","74","image-keyboard-response","53","67625","0.0-6.0-1.23","ADKI","4","m","rechts","22","","","object","j","60","true"
"null","<div style=""font-size:60px;"">+</div>","null","html-keyboard-response","54","67949","0.0-6.0-0.24","ADKI","4","m","rechts","22","","fixation","","","",""
"725","img/0_60.png","74","image-keyboard-response","55","68694","0.0-6.0-1.24","ADKI","4","m","rechts","22","","","object","j","0","true"
"null","<div style=""font-size:60px;"">+</div>","null","html-keyboard-response","56","69119","0.0-6.0-0.25","ADKI","4","m","rechts","22","","fixation","","","",""
"736","img/90_330.png","74","image-keyboard-response","57","69875","0.0-6.0-1.25","ADKI","4","m","rechts","22","","","object","j","90","true"
"null","<div style=""font-size:60px;"">+</div>","null","html-keyboard-response","58","70339","0.0-6.0-0.26","ADKI","4","m","rechts","22","","fixation","","","",""
"948","img/L60_180.png","74","image-keyboard-response","59","71304","0.0-6.0-1.26","ADKI","4","m","rechts","22","","","object","j","60","true"
"null","<div style=""font-size:60px;"">+</div>","null","html-keyboard-response","60","71666","0.0-6.0-0.27","ADKI","4","m","rechts","22","","fixation","","","",""
"754","img/0_150.png","74","image-keyboard-response","61","72440","0.0-6.0-1.27","ADKI","4","m","rechts","22","","","object","j","0","true"
"null","<div style=""font-size:60px;"">+</div>","null","html-keyboard-response","62","72745","0.0-6.0-0.28","ADKI","4","m","rechts","22","","fixation","","","",""
"835","img/120_180.png","70","image-keyboard-response","63","73599","0.0-6.0-1.28","ADKI","4","m","rechts","22","","","object","f","120","true"
"null","<div style=""font-size:60px;"">+</div>","null","html-keyboard-response","64","73963","0.0-6.0-0.29","ADKI","4","m","rechts","22","","fixation","","","",""
"1182","img/30_240.png","70","image-keyboard-response","65","75162","0.0-6.0-1.29","ADKI","4","m","rechts","22","","","object","f","30","true"
"null","<div style=""font-size:60px;"">+</div>","null","html-keyboard-response","66","75525","0.0-6.0-0.30","ADKI","4","m","rechts","22","","fixation","","","",""
"701","img/0_30.png","74","image-keyboard-response","67","76243","0.0-6.0-1.30","ADKI","4","m","rechts","22","","","object","j","0","true"
"null","<div style=""font-size:60px;"">+</div>","null","html-keyboard-response","68","76668","0.0-6.0-0.31","ADKI","4","m","rechts","22","","fixation","","","",""
"749","img/L120_180.png","74","image-keyboard-response","69","77435","0.0-6.0-1.31","ADKI","4","m","rechts","22","","","object","j","120","true"
"null","<div style=""font-size:60px;"">+</div>","null","html-keyboard-response","70","77746","0.0-6.0-0.32","ADKI","4","m","rechts","22","","fixation","","","",""
"691","img/0_270.png","70","image-keyboard-response","71","78447","0.0-6.0-1.32","ADKI","4","m","rechts","22","","","object","f","0","true"
"null","<div style=""font-size:60px;"">+</div>","null","html-keyboard-response","72","78917","0.0-6.0-0.33","ADKI","4","m","rechts","22","","fixation","","","",""
"1092","img/60_210.png","70","image-keyboard-response","73","80033","0.0-6.0-1.33","ADKI","4","m","rechts","22","","","object","f","60","true"
"null","<div style=""font-size:60px;"">+</div>","null","html-keyboard-response","74","80465","0.0-6.0-0.34","ADKI","4","m","rechts","22","","fixation","","","",""
"664","img/0_240.png","70","image-keyboard-response","75","81148","0.0-6.0-1.34","ADKI","4","m","rechts","22","","","object","f","0","true"
"null","<div style=""font-size:60px;"">+</div>","null","html-keyboard-response","76","81616","0.0-6.0-0.35","ADKI","4","m","rechts","22","","fixation","","","",""
"1032","img/120_210.png","70","image-keyboard-response","77","82666","0.0-6.0-1.35","ADKI","4","m","rechts","22","","","object","f","120","true"
"null","<div style=""font-size:60px;"">+</div>","null","html-keyboard-response","78","82997","0.0-6.0-0.36","ADKI","4","m","rechts","22","","fixation","","","",""
"1305","img/150_90.png","70","image-keyboard-response","79","84321","0.0-6.0-1.36","ADKI","4","m","rechts","22","","","object","f","150","true"
"null","<div style=""font-size:60px;"">+</div>","null","html-keyboard-response","80","84730","0.0-6.0-0.37","ADKI","4","m","rechts","22","","fixation","","","",""
"1351","img/120_270.png","74","image-keyboard-response","81","86109","0.0-6.0-1.37","ADKI","4","m","rechts","22","","","object","j","120","true"
"null","<div style=""font-size:60px;"">+</div>","null","html-keyboard-response","82","86421","0.0-6.0-0.38","ADKI","4","m","rechts","22","","fixation","","","",""
"897","img/30_120.png","74","image-keyboard-response","83","87335","0.0-6.0-1.38","ADKI","4","m","rechts","22","","","object","j","30","true"
"null","<div style=""font-size:60px;"">+</div>","null","html-keyboard-response","84","87638","0.0-6.0-0.39","ADKI","4","m","rechts","22","","fixation","","","",""
"835","img/90_180.png","70","image-keyboard-response","85","88494","0.0-6.0-1.39","ADKI","4","m","rechts","22","","","object","f","90","true"
"null","<div style=""font-size:60px;"">+</div>","null","html-keyboard-response","86","88899","0.0-6.0-0.40","ADKI","4","m","rechts","22","","fixation","","","",""
"770","img/60_180.png","70","image-keyboard-response","87","89686","0.0-6.0-1.40","ADKI","4","m","rechts","22","","","object","f","60","true"
"null","<div style=""font-size:60px;"">+</div>","null","html-keyboard-response","88","90057","0.0-6.0-0.41","ADKI","4","m","rechts","22","","fixation","","","",""
"759","img/0_300.png","70","image-keyboard-response","89","90832","0.0-6.0-1.41","ADKI","4","m","rechts","22","","","object","f","0","true"
"null","<div style=""font-size:60px;"">+</div>","null","html-keyboard-response","90","91289","0.0-6.0-0.42","ADKI","4","m","rechts","22","","fixation","","","",""
"1654","img/90_240.png","70","image-keyboard-response","91","92960","0.0-6.0-1.42","ADKI","4","m","rechts","22","","","object","f","90","true"
"null","<div style=""font-size:60px;"">+</div>","null","html-keyboard-response","92","93492","0.0-6.0-0.43","ADKI","4","m","rechts","22","","fixation","","","",""
"687","img/30_90.png","74","image-keyboard-response","93","94198","0.0-6.0-1.43","ADKI","4","m","rechts","22","","","object","j","30","true"
"null","<div style=""font-size:60px;"">+</div>","null","html-keyboard-response","94","94712","0.0-6.0-0.44","ADKI","4","m","rechts","22","","fixation","","","",""
"1289","img/30_300.png","70","image-keyboard-response","95","96021","0.0-6.0-1.44","ADKI","4","m","rechts","22","","","object","f","30","true"
"null","<div style=""font-size:60px;"">+</div>","null","html-keyboard-response","96","96523","0.0-6.0-0.45","ADKI","4","m","rechts","22","","fixation","","","",""
"794","img/90_150.png","74","image-keyboard-response","97","97336","0.0-6.0-1.45","ADKI","4","m","rechts","22","","","object","j","90","true"
"null","<div style=""font-size:60px;"">+</div>","null","html-keyboard-response","98","97743","0.0-6.0-0.46","ADKI","4","m","rechts","22","","fixation","","","",""
"1810","img/150_120.png","70","image-keyboard-response","99","99587","0.0-6.0-1.46","ADKI","4","m","rechts","22","","","object","f","150","true"
"null","<div style=""font-size:60px;"">+</div>","null","html-keyboard-response","100","100010","0.0-6.0-0.47","ADKI","4","m","rechts","22","","fixation","","","",""
"1031","img/30_270.png","70","image-keyboard-response","101","101060","0.0-6.0-1.47","ADKI","4","m","rechts","22","","","object","f","30","true"
"null","<div style=""font-size:60px;"">+</div>","null","html-keyboard-response","102","101464","0.0-6.0-0.48","ADKI","4","m","rechts","22","","fixation","","","",""
"725","img/0_330.png","70","image-keyboard-response","103","102207","0.0-6.0-1.48","ADKI","4","m","rechts","22","","","object","f","0","true"
"null","<div style=""font-size:60px;"">+</div>","null","html-keyboard-response","104","102729","0.0-6.0-0.49","ADKI","4","m","rechts","22","","fixation","","","",""
"943","img/150_300.png","74","image-keyboard-response","105","103692","0.0-6.0-1.49","ADKI","4","m","rechts","22","","","object","j","150","true"
"null","<div style=""font-size:60px;"">+</div>","null","html-keyboard-response","106","104150","0.0-6.0-0.50","ADKI","4","m","rechts","22","","fixation","","","",""
"943","img/120_330.png","74","image-keyboard-response","107","105110","0.0-6.0-1.50","ADKI","4","m","rechts","22","","","object","j","120","true"
"null","<div style=""font-size:60px;"">+</div>","null","html-keyboard-response","108","105635","0.0-6.0-0.51","ADKI","4","m","rechts","22","","fixation","","","",""
"841","img/L30_180.png","70","image-keyboard-response","109","106494","0.0-6.0-1.51","ADKI","4","m","rechts","22","","","object","j","30","false"
"null","<div style=""font-size:60px;"">+</div>","null","html-keyboard-response","110","106962","0.0-6.0-0.52","ADKI","4","m","rechts","22","","fixation","","","",""
"993","img/90_60.png","70","image-keyboard-response","111","107968","0.0-6.0-1.52","ADKI","4","m","rechts","22","","","object","f","90","true"
"null","<div style=""font-size:60px;"">+</div>","null","html-keyboard-response","112","108447","0.0-6.0-0.53","ADKI","4","m","rechts","22","","fixation","","","",""
"1570","img/150_120.png","70","image-keyboard-response","113","110027","0.0-6.0-1.53","ADKI","4","m","rechts","22","","","object","f","150","true"
"null","<div style=""font-size:60px;"">+</div>","null","html-keyboard-response","114","110494","0.0-6.0-0.54","ADKI","4","m","rechts","22","","fixation","","","",""
"1368","img/L30_180.png","74","image-keyboard-response","115","111871","0.0-6.0-1.54","ADKI","4","m","rechts","22","","","object","j","30","true"
"null","<div style=""font-size:60px;"">+</div>","null","html-keyboard-response","116","112401","0.0-6.0-0.55","ADKI","4","m","rechts","22","","fixation","","","",""
"705","img/0_120.png","74","image-keyboard-response","117","113122","0.0-6.0-1.55","ADKI","4","m","rechts","22","","","object","j","0","true"
"null","<div style=""font-size:60px;"">+</div>","null","html-keyboard-response","118","113494","0.0-6.0-0.56","ADKI","4","m","rechts","22","","fixation","","","",""
"771","img/90_300.png","74","image-keyboard-response","119","114279","0.0-6.0-1.56","ADKI","4","m","rechts","22","","","object","j","90","true"
"null","<div style=""font-size:60px;"">+</div>","null","html-keyboard-response","120","114728","0.0-6.0-0.57","ADKI","4","m","rechts","22","","fixation","","","",""
"909","img/60_150.png","74","image-keyboard-response","121","115651","0.0-6.0-1.57","ADKI","4","m","rechts","22","","","object","j","60","true"
"null","<div style=""font-size:60px;"">+</div>","null","html-keyboard-response","122","116055","0.0-6.0-0.58","ADKI","4","m","rechts","22","","fixation","","","",""
"740","img/150_180.png","70","image-keyboard-response","123","116808","0.0-6.0-1.58","ADKI","4","m","rechts","22","","","object","f","150","true"
"null","<div style=""font-size:60px;"">+</div>","null","html-keyboard-response","124","117136","0.0-6.0-0.59","ADKI","4","m","rechts","22","","fixation","","","",""
"685","img/60_330.png","74","image-keyboard-response","125","117834","0.0-6.0-1.59","ADKI","4","m","rechts","22","","","object","j","60","true"
"null","<div style=""font-size:60px;"">+</div>","null","html-keyboard-response","126","118339","0.0-6.0-0.60","ADKI","4","m","rechts","22","","fixation","","","",""
"798","img/60_270.png","70","image-keyboard-response","127","119150","0.0-6.0-1.60","ADKI","4","m","rechts","22","","","object","f","60","true"
"null","<div style=""font-size:60px;"">+</div>","null","html-keyboard-response","128","119620","0.0-6.0-0.61","ADKI","4","m","rechts","22","","fixation","","","",""
"914","img/120_150.png","74","image-keyboard-response","129","120547","0.0-6.0-1.61","ADKI","4","m","rechts","22","","","object","j","120","true"
"null","<div style=""font-size:60px;"">+</div>","null","html-keyboard-response","130","121073","0.0-6.0-0.62","ADKI","4","m","rechts","22","","fixation","","","",""
"796","img/L90_180.png","74","image-keyboard-response","131","121884","0.0-6.0-1.62","ADKI","4","m","rechts","22","","","object","j","90","true"
"null","<div style=""font-size:60px;"">+</div>","null","html-keyboard-response","132","122197","0.0-6.0-0.63","ADKI","4","m","rechts","22","","fixation","","","",""
"1181","img/150_240.png","74","image-keyboard-response","133","123392","0.0-6.0-1.63","ADKI","4","m","rechts","22","","","object","j","150","true"
"null","<div style=""font-size:60px;"">+</div>","null","html-keyboard-response","134","123696","0.0-6.0-0.64","ADKI","4","m","rechts","22","","fixation","","","",""
"822","img/150_90.png","70","image-keyboard-response","135","124527","0.0-6.0-1.64","ADKI","4","m","rechts","22","","","object","f","150","true"
"null","<div style=""font-size:60px;"">+</div>","null","html-keyboard-response","136","124993","0.0-6.0-0.65","ADKI","4","m","rechts","22","","fixation","","","",""
"883","img/150_270.png","74","image-keyboard-response","137","125889","0.0-6.0-1.65","ADKI","4","m","rechts","22","","","object","j","150","true"
"null","<div style=""font-size:60px;"">+</div>","null","html-keyboard-response","138","126200","0.0-6.0-0.66","ADKI","4","m","rechts","22","","fixation","","","",""
"1119","img/120_270.png","74","image-keyboard-response","139","127330","0.0-6.0-1.66","ADKI","4","m","rechts","22","","","object","j","120","true"
"null","<div style=""font-size:60px;"">+</div>","null","html-keyboard-response","140","127699","0.0-6.0-0.67","ADKI","4","m","rechts","22","","fixation","","","",""
"774","img/0_90.png","74","image-keyboard-response","141","128486","0.0-6.0-1.67","ADKI","4","m","rechts","22","","","object","j","0","true"
"null","<div style=""font-size:60px;"">+</div>","null","html-keyboard-response","142","128839","0.0-6.0-0.68","ADKI","4","m","rechts","22","","fixation","","","",""
"663","img/120_330.png","74","image-keyboard-response","143","129512","0.0-6.0-1.68","ADKI","4","m","rechts","22","","","object","j","120","true"
"null","<div style=""font-size:60px;"">+</div>","null","html-keyboard-response","144","129917","0.0-6.0-0.69","ADKI","4","m","rechts","22","","fixation","","","",""
"820","img/120_180.png","70","image-keyboard-response","145","130750","0.0-6.0-1.69","ADKI","4","m","rechts","22","","","object","f","120","true"
"null","<div style=""font-size:60px;"">+</div>","null","html-keyboard-response","146","131278","0.0-6.0-0.70","ADKI","4","m","rechts","22","","fixation","","","",""
"708","img/60_30.png","70","image-keyboard-response","147","131998","0.0-6.0-1.70","ADKI","4","m","rechts","22","","","object","f","60","true"
"null","<div style=""font-size:60px;"">+</div>","null","html-keyboard-response","148","132417","0.0-6.0-0.71","ADKI","4","m","rechts","22","","fixation","","","",""
"818","img/150_60.png","74","image-keyboard-response","149","133248","0.0-6.0-1.71","ADKI","4","m","rechts","22","","","object","f","150","false"
"null","<div style=""font-size:60px;"">+</div>","null","html-keyboard-response","150","133559","0.0-6.0-0.72","ADKI","4","m","rechts","22","","fixation","","","",""
"1132","img/30_270.png","70","image-keyboard-response","151","134698","0.0-6.0-1.72","ADKI","4","m","rechts","22","","","object","f","30","true"
"null","<div style=""font-size:60px;"">+</div>","null","html-keyboard-response","152","135075","0.0-6.0-0.73","ADKI","4","m","rechts","22","","fixation","","","",""
"783","img/90_150.png","74","image-keyboard-response","153","135868","0.0-6.0-1.73","ADKI","4","m","rechts","22","","","object","j","90","true"
"null","<div style=""font-size:60px;"">+</div>","null","html-keyboard-response","154","136278","0.0-6.0-0.74","ADKI","4","m","rechts","22","","fixation","","","",""
"705","img/90_180.png","70","image-keyboard-response","155","136993","0.0-6.0-1.74","ADKI","4","m","rechts","22","","","object","f","90","true"
"null","<div style=""font-size:60px;"">+</div>","null","html-keyboard-response","156","137497","0.0-6.0-0.75","ADKI","4","m","rechts","22","","fixation","","","",""
"1859","img/30_90.png","74","image-keyboard-response","157","139367","0.0-6.0-1.75","ADKI","4","m","rechts","22","","","object","j","30","true"
"null","<div style=""font-size:60px;"">+</div>","null","html-keyboard-response","158","139777","0.0-6.0-0.76","ADKI","4","m","rechts","22","","fixation","","","",""
"675","img/0_330.png","70","image-keyboard-response","159","140457","0.0-6.0-1.76","ADKI","4","m","rechts","22","","","object","f","0","true"
"null","<div style=""font-size:60px;"">+</div>","null","html-keyboard-response","160","140761","0.0-6.0-0.77","ADKI","4","m","rechts","22","","fixation","","","",""
"1940","img/30_240.png","70","image-keyboard-response","161","142708","0.0-6.0-1.77","ADKI","4","m","rechts","22","","","object","f","30","true"
"null","<div style=""font-size:60px;"">+</div>","null","html-keyboard-response","162","143012","0.0-6.0-0.78","ADKI","4","m","rechts","22","","fixation","","","",""
"1069","img/30_300.png","70","image-keyboard-response","163","144092","0.0-6.0-1.78","ADKI","4","m","rechts","22","","","object","f","30","true"
"null","<div style=""font-size:60px;"">+</div>","null","html-keyboard-response","164","144449","0.0-6.0-0.79","ADKI","4","m","rechts","22","","fixation","","","",""
"892","img/90_240.png","70","image-keyboard-response","165","145352","0.0-6.0-1.79","ADKI","4","m","rechts","22","","","object","f","90","true"
"null","<div style=""font-size:60px;"">+</div>","null","html-keyboard-response","166","145808","0.0-6.0-0.80","ADKI","4","m","rechts","22","","fixation","","","",""
"2007","img/60_90.png","74","image-keyboard-response","167","147826","0.0-6.0-1.80","ADKI","4","m","rechts","22","","","object","j","60","true"
"null","<div style=""font-size:60px;"">+</div>","null","html-keyboard-response","168","148184","0.0-6.0-0.81","ADKI","4","m","rechts","22","","fixation","","","",""
"676","img/0_270.png","70","image-keyboard-response","169","148873","0.0-6.0-1.81","ADKI","4","m","rechts","22","","","object","f","0","true"
"null","<div style=""font-size:60px;"">+</div>","null","html-keyboard-response","170","149404","0.0-6.0-0.82","ADKI","4","m","rechts","22","","fixation","","","",""
"875","img/90_330.png","74","image-keyboard-response","171","150291","0.0-6.0-1.82","ADKI","4","m","rechts","22","","","object","j","90","true"
"null","<div style=""font-size:60px;"">+</div>","null","html-keyboard-response","172","150716","0.0-6.0-0.83","ADKI","4","m","rechts","22","","fixation","","","",""
"1170","img/0_60.png","74","image-keyboard-response","173","151899","0.0-6.0-1.83","ADKI","4","m","rechts","22","","","object","j","0","true"
"null","<div style=""font-size:60px;"">+</div>","null","html-keyboard-response","174","152326","0.0-6.0-0.84","ADKI","4","m","rechts","22","","fixation","","","",""
"1024","img/150_300.png","74","image-keyboard-response","175","153360","0.0-6.0-1.84","ADKI","4","m","rechts","22","","","object","j","150","true"
"null","<div style=""font-size:60px;"">+</div>","null","html-keyboard-response","176","153888","0.0-6.0-0.85","ADKI","4","m","rechts","22","","fixation","","","",""
"777","img/0_210.png","70","image-keyboard-response","177","154678","0.0-6.0-1.85","ADKI","4","m","rechts","22","","","object","f","0","true"
"null","<div style=""font-size:60px;"">+</div>","null","html-keyboard-response","178","155038","0.0-6.0-0.86","ADKI","4","m","rechts","22","","fixation","","","",""
"696","img/0_30.png","74","image-keyboard-response","179","155748","0.0-6.0-1.86","ADKI","4","m","rechts","22","","","object","j","0","true"
"null","<div style=""font-size:60px;"">+</div>","null","html-keyboard-response","180","156218","0.0-6.0-0.87","ADKI","4","m","rechts","22","","fixation","","","",""
"1754","img/30_120.png","74","image-keyboard-response","181","157986","0.0-6.0-1.87","ADKI","4","m","rechts","22","","","object","j","30","true"
"null","<div style=""font-size:60px;"">+</div>","null","html-keyboard-response","182","158404","0.0-6.0-0.88","ADKI","4","m","rechts","22","","fixation","","","",""
"1255","img/90_210.png","70","image-keyboard-response","183","159673","0.0-6.0-1.88","ADKI","4","m","rechts","22","","","object","f","90","true"
"null","<div style=""font-size:60px;"">+</div>","null","html-keyboard-response","184","160034","0.0-6.0-0.89","ADKI","4","m","rechts","22","","fixation","","","",""
"1533","img/L150_180.png","74","image-keyboard-response","185","161575","0.0-6.0-1.89","ADKI","4","m","rechts","22","","","object","j","150","true"
"null","<div style=""font-size:60px;"">+</div>","null","html-keyboard-response","186","161877","0.0-6.0-0.90","ADKI","4","m","rechts","22","","fixation","","","",""
"607","img/0_300.png","70","image-keyboard-response","187","162499","0.0-6.0-1.90","ADKI","4","m","rechts","22","","","object","f","0","true"
"null","<div style=""font-size:60px;"">+</div>","null","html-keyboard-response","188","162910","0.0-6.0-0.91","ADKI","4","m","rechts","22","","fixation","","","",""
"1004","img/60_180.png","70","image-keyboard-response","189","163927","0.0-6.0-1.91","ADKI","4","m","rechts","22","","","object","f","60","true"
"null","<div style=""font-size:60px;"">+</div>","null","html-keyboard-response","190","164440","0.0-6.0-0.92","ADKI","4","m","rechts","22","","fixation","","","",""
"1149","img/L120_180.png","74","image-keyboard-response","191","165601","0.0-6.0-1.92","ADKI","4","m","rechts","22","","","object","j","120","true"
"null","<div style=""font-size:60px;"">+</div>","null","html-keyboard-response","192","166081","0.0-6.0-0.93","ADKI","4","m","rechts","22","","fixation","","","",""
"1770","img/120_90.png","74","image-keyboard-response","193","167863","0.0-6.0-1.93","ADKI","4","m","rechts","22","","","object","f","120","false"
"null","<div style=""font-size:60px;"">+</div>","null","html-keyboard-response","194","168176","0.0-6.0-0.94","ADKI","4","m","rechts","22","","fixation","","","",""
"754","img/L60_180.png","74","image-keyboard-response","195","168945","0.0-6.0-1.94","ADKI","4","m","rechts","22","","","object","j","60","true"
"null","<div style=""font-size:60px;"">+</div>","null","html-keyboard-response","196","169412","0.0-6.0-0.95","ADKI","4","m","rechts","22","","fixation","","","",""
"1082","img/90_30.png","70","image-keyboard-response","197","170508","0.0-6.0-1.95","ADKI","4","m","rechts","22","","","object","f","90","true"
"null","<div style=""font-size:60px;"">+</div>","null","html-keyboard-response","198","171019","0.0-6.0-0.96","ADKI","4","m","rechts","22","","fixation","","","",""
"679","img/0_240.png","70","image-keyboard-response","199","171711","0.0-6.0-1.96","ADKI","4","m","rechts","22","","","object","f","0","true"
"null","<div style=""font-size:60px;"">+</div>","null","html-keyboard-response","200","172115","0.0-6.0-0.97","ADKI","4","m","rechts","22","","fixation","","","",""
"1654","img/120_210.png","70","image-keyboard-response","201","173782","0.0-6.0-1.97","ADKI","4","m","rechts","22","","","object","f","120","true"
"null","<div style=""font-size:60px;"">+</div>","null","html-keyboard-response","202","174257","0.0-6.0-0.98","ADKI","4","m","rechts","22","","fixation","","","",""
"1255","img/30_60.png","70","image-keyboard-response","203","175525","0.0-6.0-1.98","ADKI","4","m","rechts","22","","","object","j","30","false"
"null","<div style=""font-size:60px;"">+</div>","null","html-keyboard-response","204","175989","0.0-6.0-0.99","ADKI","4","m","rechts","22","","fixation","","","",""
"1346","img/30_180.png","70","image-keyboard-response","205","177348","0.0-6.0-1.99","ADKI","4","m","rechts","22","","","object","f","30","true"
"null","<div style=""font-size:60px;"">+</div>","null","html-keyboard-response","206","177772","0.0-6.0-0.100","ADKI","4","m","rechts","22","","fixation","","","",""
"1046","img/90_120.png","74","image-keyboard-response","207","178832","0.0-6.0-1.100","ADKI","4","m","rechts","22","","","object","j","90","true"
"null","<div style=""font-size:60px;"">+</div>","null","html-keyboard-response","208","179239","0.0-6.0-0.101","ADKI","4","m","rechts","22","","fixation","","","",""
"750","img/120_30.png","70","image-keyboard-response","209","180002","0.0-6.0-1.101","ADKI","4","m","rechts","22","","","object","f","120","true"
"null","<div style=""font-size:60px;"">+</div>","null","html-keyboard-response","210","180317","0.0-6.0-0.102","ADKI","4","m","rechts","22","","fixation","","","",""
"1089","img/60_210.png","70","image-keyboard-response","211","181421","0.0-6.0-1.102","ADKI","4","m","rechts","22","","","object","f","60","true"
"null","<div style=""font-size:60px;"">+</div>","null","html-keyboard-response","212","181881","0.0-6.0-0.103","ADKI","4","m","rechts","22","","fixation","","","",""
"674","img/0_150.png","74","image-keyboard-response","213","182568","0.0-6.0-1.103","ADKI","4","m","rechts","22","","","object","j","0","true"
"null","<div style=""font-size:60px;"">+</div>","null","html-keyboard-response","214","182928","0.0-6.0-0.104","ADKI","4","m","rechts","22","","fixation","","","",""
"830","img/120_270.png","70","image-keyboard-response","215","183772","0.0-6.0-1.104","ADKI","4","m","rechts","22","","","object","j","120","false"
"null","<div style=""font-size:60px;"">+</div>","null","html-keyboard-response","216","184131","0.0-6.0-0.105","ADKI","4","m","rechts","22","","fixation","","","",""
"1354","img/30_180.png","70","image-keyboard-response","217","185494","0.0-6.0-1.105","ADKI","4","m","rechts","22","","","object","f","30","true"
"null","<div style=""font-size:60px;"">+</div>","null","html-keyboard-response","218","185976","0.0-6.0-0.106","ADKI","4","m","rechts","22","","fixation","","","",""
"678","img/0_150.png","74","image-keyboard-response","219","186664","0.0-6.0-1.106","ADKI","4","m","rechts","22","","","object","j","0","true"
"null","<div style=""font-size:60px;"">+</div>","null","html-keyboard-response","220","186990","0.0-6.0-0.107","ADKI","4","m","rechts","22","","fixation","","","",""
"955","img/30_240.png","70","image-keyboard-response","221","187958","0.0-6.0-1.107","ADKI","4","m","rechts","22","","","object","f","30","true"
"null","<div style=""font-size:60px;"">+</div>","null","html-keyboard-response","222","188288","0.0-6.0-0.108","ADKI","4","m","rechts","22","","fixation","","","",""
"862","img/90_120.png","74","image-keyboard-response","223","189161","0.0-6.0-1.108","ADKI","4","m","rechts","22","","","object","j","90","true"
"null","<div style=""font-size:60px;"">+</div>","null","html-keyboard-response","224","189490","0.0-6.0-0.109","ADKI","4","m","rechts","22","","fixation","","","",""
"672","img/0_90.png","74","image-keyboard-response","225","190172","0.0-6.0-1.109","ADKI","4","m","rechts","22","","","object","j","0","true"
"null","<div style=""font-size:60px;"">+</div>","null","html-keyboard-response","226","190600","0.0-6.0-0.110","ADKI","4","m","rechts","22","","fixation","","","",""
"875","img/150_90.png","70","image-keyboard-response","227","191490","0.0-6.0-1.110","ADKI","4","m","rechts","22","","","object","f","150","true"
"null","<div style=""font-size:60px;"">+</div>","null","html-keyboard-response","228","191993","0.0-6.0-0.111","ADKI","4","m","rechts","22","","fixation","","","",""
"1250","img/150_120.png","70","image-keyboard-response","229","193256","0.0-6.0-1.111","ADKI","4","m","rechts","22","","","object","f","150","true"
"null","<div style=""font-size:60px;"">+</div>","null","html-keyboard-response","230","193679","0.0-6.0-0.112","ADKI","4","m","rechts","22","","fixation","","","",""
"849","img/L60_180.png","74","image-keyboard-response","231","194538","0.0-6.0-1.112","ADKI","4","m","rechts","22","","","object","j","60","true"
"null","<div style=""font-size:60px;"">+</div>","null","html-keyboard-response","232","195005","0.0-6.0-0.113","ADKI","4","m","rechts","22","","fixation","","","",""
"671","img/0_210.png","70","image-keyboard-response","233","195685","0.0-6.0-1.113","ADKI","4","m","rechts","22","","","object","f","0","true"
"null","<div style=""font-size:60px;"">+</div>","null","html-keyboard-response","234","196192","0.0-6.0-0.114","ADKI","4","m","rechts","22","","fixation","","","",""
"586","img/0_60.png","74","image-keyboard-response","235","196787","0.0-6.0-1.114","ADKI","4","m","rechts","22","","","object","j","0","true"
"null","<div style=""font-size:60px;"">+</div>","null","html-keyboard-response","236","197213","0.0-6.0-0.115","ADKI","4","m","rechts","22","","fixation","","","",""
"701","img/120_180.png","70","image-keyboard-response","237","197924","0.0-6.0-1.115","ADKI","4","m","rechts","22","","","object","f","120","true"
"null","<div style=""font-size:60px;"">+</div>","null","html-keyboard-response","238","198227","0.0-6.0-0.116","ADKI","4","m","rechts","22","","fixation","","","",""
"821","img/60_180.png","70","image-keyboard-response","239","199060","0.0-6.0-1.116","ADKI","4","m","rechts","22","","","object","f","60","true"
"null","<div style=""font-size:60px;"">+</div>","null","html-keyboard-response","240","199572","0.0-6.0-0.117","ADKI","4","m","rechts","22","","fixation","","","",""
"916","img/150_270.png","74","image-keyboard-response","241","200500","0.0-6.0-1.117","ADKI","4","m","rechts","22","","","object","j","150","true"
"null","<div style=""font-size:60px;"">+</div>","null","html-keyboard-response","242","200867","0.0-6.0-0.118","ADKI","4","m","rechts","22","","fixation","","","",""
"690","img/0_30.png","74","image-keyboard-response","243","201568","0.0-6.0-1.118","ADKI","4","m","rechts","22","","","object","j","0","true"
"null","<div style=""font-size:60px;"">+</div>","null","html-keyboard-response","244","201930","0.0-6.0-0.119","ADKI","4","m","rechts","22","","fixation","","","",""
"968","img/150_60.png","70","image-keyboard-response","245","202908","0.0-6.0-1.119","ADKI","4","m","rechts","22","","","object","f","150","true"
"null","<div style=""font-size:60px;"">+</div>","null","html-keyboard-response","246","203336","0.0-6.0-0.120","ADKI","4","m","rechts","22","","fixation","","","",""
"682","img/0_120.png","74","image-keyboard-response","247","204032","0.0-6.0-1.120","ADKI","4","m","rechts","22","","","object","j","0","true"
"null","<div style=""font-size:60px;"">+</div>","null","html-keyboard-response","248","204445","0.0-6.0-0.121","ADKI","4","m","rechts","22","","fixation","","","",""
"1023","img/90_300.png","74","image-keyboard-response","249","205483","0.0-6.0-1.121","ADKI","4","m","rechts","22","","","object","j","90","true"
"null","<div style=""font-size:60px;"">+</div>","null","html-keyboard-response","250","205945","0.0-6.0-0.122","ADKI","4","m","rechts","22","","fixation","","","",""
"1303","img/60_150.png","74","image-keyboard-response","251","207261","0.0-6.0-1.122","ADKI","4","m","rechts","22","","","object","j","60","true"
"null","<div style=""font-size:60px;"">+</div>","null","html-keyboard-response","252","207666","0.0-6.0-0.123","ADKI","4","m","rechts","22","","fixation","","","",""
"706","img/90_180.png","70","image-keyboard-response","253","208387","0.0-6.0-1.123","ADKI","4","m","rechts","22","","","object","f","90","true"
"null","<div style=""font-size:60px;"">+</div>","null","html-keyboard-response","254","208806","0.0-6.0-0.124","ADKI","4","m","rechts","22","","fixation","","","",""
"642","img/120_210.png","70","image-keyboard-response","255","209456","0.0-6.0-1.124","ADKI","4","m","rechts","22","","","object","f","120","true"
"null","<div style=""font-size:60px;"">+</div>","null","html-keyboard-response","256","209837","0.0-6.0-0.125","ADKI","4","m","rechts","22","","fixation","","","",""
"705","img/L90_180.png","74","image-keyboard-response","257","210547","0.0-6.0-1.125","ADKI","4","m","rechts","22","","","object","j","90","true"
"null","<div style=""font-size:60px;"">+</div>","null","html-keyboard-response","258","210962","0.0-6.0-0.126","ADKI","4","m","rechts","22","","fixation","","","",""
"651","img/0_330.png","70","image-keyboard-response","259","211627","0.0-6.0-1.126","ADKI","4","m","rechts","22","","","object","f","0","true"
"null","<div style=""font-size:60px;"">+</div>","null","html-keyboard-response","260","212088","0.0-6.0-0.127","ADKI","4","m","rechts","22","","fixation","","","",""
"582","img/0_270.png","70","image-keyboard-response","261","212685","0.0-6.0-1.127","ADKI","4","m","rechts","22","","","object","f","0","true"
"null","<div style=""font-size:60px;"">+</div>","null","html-keyboard-response","262","213042","0.0-6.0-0.128","ADKI","4","m","rechts","22","","fixation","","","",""
"1198","img/120_30.png","70","image-keyboard-response","263","214248","0.0-6.0-1.128","ADKI","4","m","rechts","22","","","object","f","120","true"
"null","<div style=""font-size:60px;"">+</div>","null","html-keyboard-response","264","214759","0.0-6.0-0.129","ADKI","4","m","rechts","22","","fixation","","","",""
"781","img/90_330.png","74","image-keyboard-response","265","215555","0.0-6.0-1.129","ADKI","4","m","rechts","22","","","object","j","90","true"
"null","<div style=""font-size:60px;"">+</div>","null","html-keyboard-response","266","215916","0.0-6.0-0.130","ADKI","4","m","rechts","22","","fixation","","","",""
"905","img/30_300.png","70","image-keyboard-response","267","216834","0.0-6.0-1.130","ADKI","4","m","rechts","22","","","object","f","30","true"
"null","<div style=""font-size:60px;"">+</div>","null","html-keyboard-response","268","217198","0.0-6.0-0.131","ADKI","4","m","rechts","22","","fixation","","","",""
"1179","img/90_210.png","70","image-keyboard-response","269","218388","0.0-6.0-1.131","ADKI","4","m","rechts","22","","","object","f","90","true"
"null","<div style=""font-size:60px;"">+</div>","null","html-keyboard-response","270","218902","0.0-6.0-0.132","ADKI","4","m","rechts","22","","fixation","","","",""
"755","img/60_30.png","70","image-keyboard-response","271","219672","0.0-6.0-1.132","ADKI","4","m","rechts","22","","","object","f","60","true"
"null","<div style=""font-size:60px;"">+</div>","null","html-keyboard-response","272","219980","0.0-6.0-0.133","ADKI","4","m","rechts","22","","fixation","","","",""
"736","img/120_330.png","74","image-keyboard-response","273","220729","0.0-6.0-1.133","ADKI","4","m","rechts","22","","","object","j","120","true"
"null","<div style=""font-size:60px;"">+</div>","null","html-keyboard-response","274","221152","0.0-6.0-0.134","ADKI","4","m","rechts","22","","fixation","","","",""
"2286","img/150_300.png","74","image-keyboard-response","275","223452","0.0-6.0-1.134","ADKI","4","m","rechts","22","","","object","j","150","true"
"null","<div style=""font-size:60px;"">+</div>","null","html-keyboard-response","276","223917","0.0-6.0-0.135","ADKI","4","m","rechts","22","","fixation","","","",""
"1025","img/150_180.png","70","image-keyboard-response","277","224946","0.0-6.0-1.135","ADKI","4","m","rechts","22","","","object","f","150","true"
"null","<div style=""font-size:60px;"">+</div>","null","html-keyboard-response","278","225464","0.0-6.0-0.136","ADKI","4","m","rechts","22","","fixation","","","",""
"919","img/30_270.png","70","image-keyboard-response","279","226399","0.0-6.0-1.136","ADKI","4","m","rechts","22","","","object","f","30","true"
"null","<div style=""font-size:60px;"">+</div>","null","html-keyboard-response","280","226716","0.0-6.0-0.137","ADKI","4","m","rechts","22","","fixation","","","",""
"794","img/60_270.png","70","image-keyboard-response","281","227523","0.0-6.0-1.137","ADKI","4","m","rechts","22","","","object","f","60","true"
"null","<div style=""font-size:60px;"">+</div>","null","html-keyboard-response","282","227888","0.0-6.0-0.138","ADKI","4","m","rechts","22","","fixation","","","",""
"849","img/120_150.png","74","image-keyboard-response","283","228750","0.0-6.0-1.138","ADKI","4","m","rechts","22","","","object","j","120","true"
"null","<div style=""font-size:60px;"">+</div>","null","html-keyboard-response","284","229107","0.0-6.0-0.139","ADKI","4","m","rechts","22","","fixation","","","",""
"912","img/0_300.png","70","image-keyboard-response","285","230032","0.0-6.0-1.139","ADKI","4","m","rechts","22","","","object","f","0","true"
"null","<div style=""font-size:60px;"">+</div>","null","html-keyboard-response","286","230512","0.0-6.0-0.140","ADKI","4","m","rechts","22","","fixation","","","",""
"1026","img/60_90.png","74","image-keyboard-response","287","231552","0.0-6.0-1.140","ADKI","4","m","rechts","22","","","object","j","60","true"
"null","<div style=""font-size:60px;"">+</div>","null","html-keyboard-response","288","231973","0.0-6.0-0.141","ADKI","4","m","rechts","22","","fixation","","","",""
"710","img/L150_180.png","74","image-keyboard-response","289","232698","0.0-6.0-1.141","ADKI","4","m","rechts","22","","","object","j","150","true"
"null","<div style=""font-size:60px;"">+</div>","null","html-keyboard-response","290","233051","0.0-6.0-0.142","ADKI","4","m","rechts","22","","fixation","","","",""
"881","img/30_90.png","74","image-keyboard-response","291","233945","0.0-6.0-1.142","ADKI","4","m","rechts","22","","","object","j","30","true"
"null","<div style=""font-size:60px;"">+</div>","null","html-keyboard-response","292","234395","0.0-6.0-0.143","ADKI","4","m","rechts","22","","fixation","","","",""
"1271","img/90_240.png","70","image-keyboard-response","293","235679","0.0-6.0-1.143","ADKI","4","m","rechts","22","","","object","f","90","true"
"null","<div style=""font-size:60px;"">+</div>","null","html-keyboard-response","294","236161","0.0-6.0-0.144","ADKI","4","m","rechts","22","","fixation","","","",""
"2284","img/120_90.png","74","image-keyboard-response","295","238458","0.0-6.0-1.144","ADKI","4","m","rechts","22","","","object","f","120","false"
"null","<div style=""font-size:60px;"">+</div>","null","html-keyboard-response","296","238819","0.0-6.0-0.145","ADKI","4","m","rechts","22","","fixation","","","",""
"784","img/90_60.png","70","image-keyboard-response","297","239616","0.0-6.0-1.145","ADKI","4","m","rechts","22","","","object","f","90","true"
"null","<div style=""font-size:60px;"">+</div>","null","html-keyboard-response","298","240036","0.0-6.0-0.146","ADKI","4","m","rechts","22","","fixation","","","",""
"1064","img/90_150.png","74","image-keyboard-response","299","241114","0.0-6.0-1.146","ADKI","4","m","rechts","22","","","object","j","90","true"
"null","<div style=""font-size:60px;"">+</div>","null","html-keyboard-response","300","241490","0.0-6.0-0.147","ADKI","4","m","rechts","22","","fixation","","","",""
"1234","img/60_210.png","70","image-keyboard-response","301","242733","0.0-6.0-1.147","ADKI","4","m","rechts","22","","","object","f","60","true"
"null","<div style=""font-size:60px;"">+</div>","null","html-keyboard-response","302","243098","0.0-6.0-0.148","ADKI","4","m","rechts","22","","fixation","","","",""
"670","img/0_240.png","70","image-keyboard-response","303","243781","0.0-6.0-1.148","ADKI","4","m","rechts","22","","","object","f","0","true"
"null","<div style=""font-size:60px;"">+</div>","null","html-keyboard-response","304","244193","0.0-6.0-0.149","ADKI","4","m","rechts","22","","fixation","","","",""
"1644","img/150_240.png","74","image-keyboard-response","305","245850","0.0-6.0-1.149","ADKI","4","m","rechts","22","","","object","j","150","true"
"null","<div style=""font-size:60px;"">+</div>","null","html-keyboard-response","306","246318","0.0-6.0-0.150","ADKI","4","m","rechts","22","","fixation","","","",""
"891","img/30_60.png","74","image-keyboard-response","307","247222","0.0-6.0-1.150","ADKI","4","m","rechts","22","","","object","j","30","true"
"null","<div style=""font-size:60px;"">+</div>","null","html-keyboard-response","308","247741","0.0-6.0-0.151","ADKI","4","m","rechts","22","","fixation","","","",""
"864","img/L120_180.png","74","image-keyboard-response","309","248617","0.0-6.0-1.151","ADKI","4","m","rechts","22","","","object","j","120","true"
"null","<div style=""font-size:60px;"">+</div>","null","html-keyboard-response","310","249146","0.0-6.0-0.152","ADKI","4","m","rechts","22","","fixation","","","",""
"1415","img/L30_180.png","74","image-keyboard-response","311","250574","0.0-6.0-1.152","ADKI","4","m","rechts","22","","","object","j","30","true"
"null","<div style=""font-size:60px;"">+</div>","null","html-keyboard-response","312","250989","0.0-6.0-0.153","ADKI","4","m","rechts","22","","fixation","","","",""
"1811","img/90_30.png","70","image-keyboard-response","313","252815","0.0-6.0-1.153","ADKI","4","m","rechts","22","","","object","f","90","true"
"null","<div style=""font-size:60px;"">+</div>","null","html-keyboard-response","314","253226","0.0-6.0-0.154","ADKI","4","m","rechts","22","","fixation","","","",""
"811","img/60_330.png","74","image-keyboard-response","315","254051","0.0-6.0-1.154","ADKI","4","m","rechts","22","","","object","j","60","true"
"null","<div style=""font-size:60px;"">+</div>","null","html-keyboard-response","316","254460","0.0-6.0-0.155","ADKI","4","m","rechts","22","","fixation","","","",""
"771","img/30_120.png","74","image-keyboard-response","317","255244","0.0-6.0-1.155","ADKI","4","m","rechts","22","","","object","j","30","true"
"null","<div style=""font-size:60px;"">+</div>","null","html-keyboard-response","318","255600","0.0-6.0-0.156","ADKI","4","m","rechts","22","","fixation","","","",""
"950","img/L90_180.png","74","image-keyboard-response","319","256560","0.0-6.0-1.156","ADKI","4","m","rechts","22","","","object","j","90","true"
"null","<div style=""font-size:60px;"">+</div>","null","html-keyboard-response","320","256912","0.0-6.0-0.157","ADKI","4","m","rechts","22","","fixation","","","",""
"746","img/0_210.png","70","image-keyboard-response","321","257674","0.0-6.0-1.157","ADKI","4","m","rechts","22","","","object","f","0","true"
"null","<div style=""font-size:60px;"">+</div>","null","html-keyboard-response","322","258037","0.0-6.0-0.158","ADKI","4","m","rechts","22","","fixation","","","",""
"943","img/90_210.png","70","image-keyboard-response","323","258990","0.0-6.0-1.158","ADKI","4","m","rechts","22","","","object","f","90","true"
"null","<div style=""font-size:60px;"">+</div>","null","html-keyboard-response","324","259521","0.0-6.0-0.159","ADKI","4","m","rechts","22","","fixation","","","",""
"1146","img/60_270.png","70","image-keyboard-response","325","260677","0.0-6.0-1.159","ADKI","4","m","rechts","22","","","object","f","60","true"
"null","<div style=""font-size:60px;"">+</div>","null","html-keyboard-response","326","261194","0.0-6.0-0.160","ADKI","4","m","rechts","22","","fixation","","","",""
"801","img/60_90.png","74","image-keyboard-response","327","262006","0.0-6.0-1.160","ADKI","4","m","rechts","22","","","object","j","60","true"
"null","<div style=""font-size:60px;"">+</div>","null","html-keyboard-response","328","262336","0.0-6.0-0.161","ADKI","4","m","rechts","22","","fixation","","","",""
"623","img/0_150.png","74","image-keyboard-response","329","262971","0.0-6.0-1.161","ADKI","4","m","rechts","22","","","object","j","0","true"
"null","<div style=""font-size:60px;"">+</div>","null","html-keyboard-response","330","263430","0.0-6.0-0.162","ADKI","4","m","rechts","22","","fixation","","","",""
"703","img/30_90.png","74","image-keyboard-response","331","264142","0.0-6.0-1.162","ADKI","4","m","rechts","22","","","object","j","30","true"
"null","<div style=""font-size:60px;"">+</div>","null","html-keyboard-response","332","264648","0.0-6.0-0.163","ADKI","4","m","rechts","22","","fixation","","","",""
"764","img/120_210.png","70","image-keyboard-response","333","265426","0.0-6.0-1.163","ADKI","4","m","rechts","22","","","object","f","120","true"
"null","<div style=""font-size:60px;"">+</div>","null","html-keyboard-response","334","265897","0.0-6.0-0.164","ADKI","4","m","rechts","22","","fixation","","","",""
"758","img/120_30.png","70","image-keyboard-response","335","266673","0.0-6.0-1.164","ADKI","4","m","rechts","22","","","object","f","120","true"
"null","<div style=""font-size:60px;"">+</div>","null","html-keyboard-response","336","267137","0.0-6.0-0.165","ADKI","4","m","rechts","22","","fixation","","","",""
"635","img/0_90.png","74","image-keyboard-response","337","267789","0.0-6.0-1.165","ADKI","4","m","rechts","22","","","object","j","0","true"
"null","<div style=""font-size:60px;"">+</div>","null","html-keyboard-response","338","268293","0.0-6.0-0.166","ADKI","4","m","rechts","22","","fixation","","","",""
"821","img/30_240.png","70","image-keyboard-response","339","269127","0.0-6.0-1.166","ADKI","4","m","rechts","22","","","object","f","30","true"
"null","<div style=""font-size:60px;"">+</div>","null","html-keyboard-response","340","269543","0.0-6.0-0.167","ADKI","4","m","rechts","22","","fixation","","","",""
"644","img/L120_180.png","74","image-keyboard-response","341","270197","0.0-6.0-1.167","ADKI","4","m","rechts","22","","","object","j","120","true"
"null","<div style=""font-size:60px;"">+</div>","null","html-keyboard-response","342","270560","0.0-6.0-0.168","ADKI","4","m","rechts","22","","fixation","","","",""
"1139","img/120_270.png","74","image-keyboard-response","343","271713","0.0-6.0-1.168","ADKI","4","m","rechts","22","","","object","j","120","true"
"null","<div style=""font-size:60px;"">+</div>","null","html-keyboard-response","344","272137","0.0-6.0-0.169","ADKI","4","m","rechts","22","","fixation","","","",""
"1069","img/30_180.png","70","image-keyboard-response","345","273219","0.0-6.0-1.169","ADKI","4","m","rechts","22","","","object","f","30","true"
"null","<div style=""font-size:60px;"">+</div>","null","html-keyboard-response","346","273637","0.0-6.0-0.170","ADKI","4","m","rechts","22","","fixation","","","",""
"875","img/90_240.png","70","image-keyboard-response","347","274516","0.0-6.0-1.170","ADKI","4","m","rechts","22","","","object","f","90","true"
"null","<div style=""font-size:60px;"">+</div>","null","html-keyboard-response","348","274841","0.0-6.0-0.171","ADKI","4","m","rechts","22","","fixation","","","",""
"801","img/60_30.png","70","image-keyboard-response","349","275652","0.0-6.0-1.171","ADKI","4","m","rechts","22","","","object","f","60","true"
"null","<div style=""font-size:60px;"">+</div>","null","html-keyboard-response","350","276183","0.0-6.0-0.172","ADKI","4","m","rechts","22","","fixation","","","",""
"751","img/L150_180.png","74","image-keyboard-response","351","276945","0.0-6.0-1.172","ADKI","4","m","rechts","22","","","object","j","150","true"
"null","<div style=""font-size:60px;"">+</div>","null","html-keyboard-response","352","277248","0.0-6.0-0.173","ADKI","4","m","rechts","22","","fixation","","","",""
"798","img/150_60.png","70","image-keyboard-response","353","278060","0.0-6.0-1.173","ADKI","4","m","rechts","22","","","object","f","150","true"
"null","<div style=""font-size:60px;"">+</div>","null","html-keyboard-response","354","278373","0.0-6.0-0.174","ADKI","4","m","rechts","22","","fixation","","","",""
"1195","img/L30_180.png","74","image-keyboard-response","355","279577","0.0-6.0-1.174","ADKI","4","m","rechts","22","","","object","j","30","true"
"null","<div style=""font-size:60px;"">+</div>","null","html-keyboard-response","356","279934","0.0-6.0-0.175","ADKI","4","m","rechts","22","","fixation","","","",""
"750","img/120_180.png","70","image-keyboard-response","357","280691","0.0-6.0-1.175","ADKI","4","m","rechts","22","","","object","f","120","true"
"null","<div style=""font-size:60px;"">+</div>","null","html-keyboard-response","358","281153","0.0-6.0-0.176","ADKI","4","m","rechts","22","","fixation","","","",""
"663","img/30_120.png","74","image-keyboard-response","359","281828","0.0-6.0-1.176","ADKI","4","m","rechts","22","","","object","j","30","true"
"null","<div style=""font-size:60px;"">+</div>","null","html-keyboard-response","360","282341","0.0-6.0-0.177","ADKI","4","m","rechts","22","","fixation","","","",""
"699","img/120_330.png","74","image-keyboard-response","361","283054","0.0-6.0-1.177","ADKI","4","m","rechts","22","","","object","j","120","true"
"null","<div style=""font-size:60px;"">+</div>","null","html-keyboard-response","362","283527","0.0-6.0-0.178","ADKI","4","m","rechts","22","","fixation","","","",""
"607","img/0_300.png","70","image-keyboard-response","363","284145","0.0-6.0-1.178","ADKI","4","m","rechts","22","","","object","f","0","true"
"null","<div style=""font-size:60px;"">+</div>","null","html-keyboard-response","364","284669","0.0-6.0-0.179","ADKI","4","m","rechts","22","","fixation","","","",""
"666","img/L60_180.png","74","image-keyboard-response","365","285349","0.0-6.0-1.179","ADKI","4","m","rechts","22","","","object","j","60","true"
"null","<div style=""font-size:60px;"">+</div>","null","html-keyboard-response","366","285669","0.0-6.0-0.180","ADKI","4","m","rechts","22","","fixation","","","",""
"744","img/60_180.png","70","image-keyboard-response","367","286430","0.0-6.0-1.180","ADKI","4","m","rechts","22","","","object","f","60","true"
"null","<div style=""font-size:60px;"">+</div>","null","html-keyboard-response","368","286842","0.0-6.0-0.181","ADKI","4","m","rechts","22","","fixation","","","",""
"634","img/120_150.png","74","image-keyboard-response","369","287486","0.0-6.0-1.181","ADKI","4","m","rechts","22","","","object","j","120","true"
"null","<div style=""font-size:60px;"">+</div>","null","html-keyboard-response","370","287843","0.0-6.0-0.182","ADKI","4","m","rechts","22","","fixation","","","",""
"669","img/90_30.png","70","image-keyboard-response","371","288521","0.0-6.0-1.182","ADKI","4","m","rechts","22","","","object","f","90","true"
"null","<div style=""font-size:60px;"">+</div>","null","html-keyboard-response","372","289031","0.0-6.0-0.183","ADKI","4","m","rechts","22","","fixation","","","",""
"650","img/60_330.png","74","image-keyboard-response","373","289692","0.0-6.0-1.183","ADKI","4","m","rechts","22","","","object","j","60","true"
"null","<div style=""font-size:60px;"">+</div>","null","html-keyboard-response","374","290124","0.0-6.0-0.184","ADKI","4","m","rechts","22","","fixation","","","",""
"857","img/150_300.png","74","image-keyboard-response","375","290995","0.0-6.0-1.184","ADKI","4","m","rechts","22","","","object","j","150","true"
"null","<div style=""font-size:60px;"">+</div>","null","html-keyboard-response","376","291311","0.0-6.0-0.185","ADKI","4","m","rechts","22","","fixation","","","",""
"919","img/90_120.png","74","image-keyboard-response","377","292246","0.0-6.0-1.185","ADKI","4","m","rechts","22","","","object","j","90","true"
"null","<div style=""font-size:60px;"">+</div>","null","html-keyboard-response","378","292670","0.0-6.0-0.186","ADKI","4","m","rechts","22","","fixation","","","",""
"763","img/90_330.png","74","image-keyboard-response","379","293449","0.0-6.0-1.186","ADKI","4","m","rechts","22","","","object","j","90","true"
"null","<div style=""font-size:60px;"">+</div>","null","html-keyboard-response","380","293967","0.0-6.0-0.187","ADKI","4","m","rechts","22","","fixation","","","",""
"1558","img/120_90.png","70","image-keyboard-response","381","295531","0.0-6.0-1.187","ADKI","4","m","rechts","22","","","object","f","120","true"
"null","<div style=""font-size:60px;"">+</div>","null","html-keyboard-response","382","295951","0.0-6.0-0.188","ADKI","4","m","rechts","22","","fixation","","","",""
"731","img/0_240.png","70","image-keyboard-response","383","296690","0.0-6.0-1.188","ADKI","4","m","rechts","22","","","object","f","0","true"
"null","<div style=""font-size:60px;"">+</div>","null","html-keyboard-response","384","297094","0.0-6.0-0.189","ADKI","4","m","rechts","22","","fixation","","","",""
"764","img/60_150.png","74","image-keyboard-response","385","297871","0.0-6.0-1.189","ADKI","4","m","rechts","22","","","object","j","60","true"
"null","<div style=""font-size:60px;"">+</div>","null","html-keyboard-response","386","298282","0.0-6.0-0.190","ADKI","4","m","rechts","22","","fixation","","","",""
"1087","img/60_210.png","70","image-keyboard-response","387","299378","0.0-6.0-1.190","ADKI","4","m","rechts","22","","","object","f","60","true"
"null","<div style=""font-size:60px;"">+</div>","null","html-keyboard-response","388","299798","0.0-6.0-0.191","ADKI","4","m","rechts","22","","fixation","","","",""
"727","img/90_180.png","70","image-keyboard-response","389","300538","0.0-6.0-1.191","ADKI","4","m","rechts","22","","","object","f","90","true"
"null","<div style=""font-size:60px;"">+</div>","null","html-keyboard-response","390","300968","0.0-6.0-0.192","ADKI","4","m","rechts","22","","fixation","","","",""
"1126","img/30_60.png","74","image-keyboard-response","391","302101","0.0-6.0-1.192","ADKI","4","m","rechts","22","","","object","j","30","true"
"null","<div style=""font-size:60px;"">+</div>","null","html-keyboard-response","392","302421","0.0-6.0-0.193","ADKI","4","m","rechts","22","","fixation","","","",""
"1152","img/150_270.png","74","image-keyboard-response","393","303586","0.0-6.0-1.193","ADKI","4","m","rechts","22","","","object","j","150","true"
"null","<div style=""font-size:60px;"">+</div>","null","html-keyboard-response","394","303951","0.0-6.0-0.194","ADKI","4","m","rechts","22","","fixation","","","",""
"853","img/90_150.png","74","image-keyboard-response","395","304813","0.0-6.0-1.194","ADKI","4","m","rechts","22","","","object","j","90","true"
"null","<div style=""font-size:60px;"">+</div>","null","html-keyboard-response","396","305326","0.0-6.0-0.195","ADKI","4","m","rechts","22","","fixation","","","",""
"821","img/150_180.png","70","image-keyboard-response","397","306162","0.0-6.0-1.195","ADKI","4","m","rechts","22","","","object","f","150","true"
"null","<div style=""font-size:60px;"">+</div>","null","html-keyboard-response","398","306469","0.0-6.0-0.196","ADKI","4","m","rechts","22","","fixation","","","",""
"692","img/0_330.png","70","image-keyboard-response","399","307175","0.0-6.0-1.196","ADKI","4","m","rechts","22","","","object","f","0","true"
"null","<div style=""font-size:60px;"">+</div>","null","html-keyboard-response","400","307486","0.0-6.0-0.197","ADKI","4","m","rechts","22","","fixation","","","",""
"632","img/0_60.png","74","image-keyboard-response","401","308131","0.0-6.0-1.197","ADKI","4","m","rechts","22","","","object","j","0","true"
"null","<div style=""font-size:60px;"">+</div>","null","html-keyboard-response","402","308439","0.0-6.0-0.198","ADKI","4","m","rechts","22","","fixation","","","",""
"1140","img/90_60.png","70","image-keyboard-response","403","309592","0.0-6.0-1.198","ADKI","4","m","rechts","22","","","object","f","90","true"
"null","<div style=""font-size:60px;"">+</div>","null","html-keyboard-response","404","310111","0.0-6.0-0.199","ADKI","4","m","rechts","22","","fixation","","","",""
"931","img/150_90.png","70","image-keyboard-response","405","311057","0.0-6.0-1.199","ADKI","4","m","rechts","22","","","object","f","150","true"
"null","<div style=""font-size:60px;"">+</div>","null","html-keyboard-response","406","311361","0.0-6.0-0.200","ADKI","4","m","rechts","22","","fixation","","","",""
"1046","img/150_240.png","74","image-keyboard-response","407","312417","0.0-6.0-1.200","ADKI","4","m","rechts","22","","","object","j","150","true"
"null","<div style=""font-size:60px;"">+</div>","null","html-keyboard-response","408","312876","0.0-6.0-0.201","ADKI","4","m","rechts","22","","fixation","","","",""
"1845","img/0_30.png","74","image-keyboard-response","409","314735","0.0-6.0-1.201","ADKI","4","m","rechts","22","","","object","j","0","true"
"null","<div style=""font-size:60px;"">+</div>","null","html-keyboard-response","410","315141","0.0-6.0-0.202","ADKI","4","m","rechts","22","","fixation","","","",""
"1176","img/150_120.png","70","image-keyboard-response","411","316331","0.0-6.0-1.202","ADKI","4","m","rechts","22","","","object","f","150","true"
"null","<div style=""font-size:60px;"">+</div>","null","html-keyboard-response","412","316754","0.0-6.0-0.203","ADKI","4","m","rechts","22","","fixation","","","",""
"1297","img/0_270.png","70","image-keyboard-response","413","318066","0.0-6.0-1.203","ADKI","4","m","rechts","22","","","object","f","0","true"
"null","<div style=""font-size:60px;"">+</div>","null","html-keyboard-response","414","318581","0.0-6.0-0.204","ADKI","4","m","rechts","22","","fixation","","","",""
"708","img/30_270.png","74","image-keyboard-response","415","319302","0.0-6.0-1.204","ADKI","4","m","rechts","22","","","object","f","30","false"
"null","<div style=""font-size:60px;"">+</div>","null","html-keyboard-response","416","319659","0.0-6.0-0.205","ADKI","4","m","rechts","22","","fixation","","","",""
"1407","img/30_300.png","70","image-keyboard-response","417","321080","0.0-6.0-1.205","ADKI","4","m","rechts","22","","","object","f","30","true"
"null","<div style=""font-size:60px;"">+</div>","null","html-keyboard-response","418","321440","0.0-6.0-0.206","ADKI","4","m","rechts","22","","fixation","","","",""
"748","img/90_300.png","74","image-keyboard-response","419","322205","0.0-6.0-1.206","ADKI","4","m","rechts","22","","","object","j","90","true"
"null","<div style=""font-size:60px;"">+</div>","null","html-keyboard-response","420","322627","0.0-6.0-0.207","ADKI","4","m","rechts","22","","fixation","","","",""
"734","img/0_120.png","74","image-keyboard-response","421","323374","0.0-6.0-1.207","ADKI","4","m","rechts","22","","","object","j","0","true"
"10282","<p>Du hast in 93% der Versuche korrekt entschieden.</p><p>Deine durchschnittliche Reaktionszeit war  963ms.</p><p>Dr&uuml;cke eine beliebige Taste, um die Session zu beenden. Vielen Dank!</p>","32","html-keyboard-response","422","333664","0.0-7.0","ADKI","4","m","rechts","22","","","","","",""
