"rt","stimulus","key_press","trial_type","trial_index","time_elapsed","internal_node_id","subject","session","sex","handedness","age","responses","test_part","condition","correct_response","angle","correct"
"5869","<p>Mental Rotation Experiment.</p> <p>Dr&uuml;cke eine beliebige Taste, um anzufangen.</p>","13","html-keyboard-response","0","5893","0.0-0.0","ADKI","3","m","rechts","22","","","","","",""
"9705","","","survey-text","1","15600","0.0-1.0","ADKI","3","m","rechts","22","{""Q0"":""ADKI""}","","","","",""
"2431","","","survey-text","2","18033","0.0-2.0","ADKI","3","m","rechts","22","{""Q0"":""3""}","","","","",""
"6226","","","survey-multi-choice","3","24264","0.0-3.0","ADKI","3","m","rechts","22","{""Q0"":""m"",""Q1"":""rechts""}","","","","",""
"3457","","","survey-text","4","27723","0.0-4.0","ADKI","3","m","rechts","22","{""Q0"":""22""}","","","","",""
"21693","<p> Stell dir vor, dass du vor einem runden Tisch stehst, auf dem sich ein blauer Ball am Tischrand befindet. Entlang des Tischrands ist jeweils ein verschieden langer Pfeil. Nun bewegst du dich entlang dieses Pfeils bis an seine Spitze. Wenn du am Ende des Pfeils angekommen bist, schau zur Tischmitte. </p> <img src='img/90_180.png'></img> <br> <p>Entscheide dann, ob der Ball von deiner neuen (vorgestellten) Position links oder rechts von dir liegt.</p> <p>Dr&uuml;cke die <strong>'f'</strong>-Taste f&uuml;r links, die <strong>'j'</strong>-Taste f&uuml;r rechts.</p> <br><p> Das Bild wird jeweils 1 Sekunde lang pr&auml;sentiert. Du hast 3 Sekunden Zeit eine Entscheidung zu treffen.</p>","74","html-keyboard-response","5","49438","0.0-5.0","ADKI","3","m","rechts","22","","","","","",""
"null","<div style=""font-size:60px;"">+</div>","null","html-keyboard-response","6","50980","0.0-6.0-0.0","ADKI","3","m","rechts","22","","fixation","","","",""
"1148","img/0_270.png","70","image-keyboard-response","7","52149","0.0-6.0-1.0","ADKI","3","m","rechts","22","","","self","f","0","true"
"null","<div style=""font-size:60px;"">+</div>","null","html-keyboard-response","8","52660","0.0-6.0-0.1","ADKI","3","m","rechts","22","","fixation","","","",""
"1149","img/30_240.png","70","image-keyboard-response","9","53829","0.0-6.0-1.1","ADKI","3","m","rechts","22","","","self","f","30","true"
"null","<div style=""font-size:60px;"">+</div>","null","html-keyboard-response","10","54201","0.0-6.0-0.2","ADKI","3","m","rechts","22","","fixation","","","",""
"859","img/60_330.png","70","image-keyboard-response","11","55078","0.0-6.0-1.2","ADKI","3","m","rechts","22","","","self","f","60","true"
"null","<div style=""font-size:60px;"">+</div>","null","html-keyboard-response","12","55590","0.0-6.0-0.3","ADKI","3","m","rechts","22","","fixation","","","",""
"1001","img/150_60.png","70","image-keyboard-response","13","56609","0.0-6.0-1.3","ADKI","3","m","rechts","22","","","self","f","150","true"
"null","<div style=""font-size:60px;"">+</div>","null","html-keyboard-response","14","56934","0.0-6.0-0.4","ADKI","3","m","rechts","22","","fixation","","","",""
"1175","img/90_60.png","74","image-keyboard-response","15","58128","0.0-6.0-1.4","ADKI","3","m","rechts","22","","","self","j","90","true"
"null","<div style=""font-size:60px;"">+</div>","null","html-keyboard-response","16","58653","0.0-6.0-0.5","ADKI","3","m","rechts","22","","fixation","","","",""
"932","img/150_180.png","74","image-keyboard-response","17","59602","0.0-6.0-1.5","ADKI","3","m","rechts","22","","","self","j","150","true"
"null","<div style=""font-size:60px;"">+</div>","null","html-keyboard-response","18","59918","0.0-6.0-0.6","ADKI","3","m","rechts","22","","fixation","","","",""
"610","img/0_60.png","74","image-keyboard-response","19","60547","0.0-6.0-1.6","ADKI","3","m","rechts","22","","","self","j","0","true"
"null","<div style=""font-size:60px;"">+</div>","null","html-keyboard-response","20","60872","0.0-6.0-0.7","ADKI","3","m","rechts","22","","fixation","","","",""
"685","img/90_180.png","74","image-keyboard-response","21","61571","0.0-6.0-1.7","ADKI","3","m","rechts","22","","","self","j","90","true"
"null","<div style=""font-size:60px;"">+</div>","null","html-keyboard-response","22","62043","0.0-6.0-0.8","ADKI","3","m","rechts","22","","fixation","","","",""
"1050","img/120_330.png","70","image-keyboard-response","23","63113","0.0-6.0-1.8","ADKI","3","m","rechts","22","","","self","f","120","true"
"null","<div style=""font-size:60px;"">+</div>","null","html-keyboard-response","24","63575","0.0-6.0-0.9","ADKI","3","m","rechts","22","","fixation","","","",""
"825","img/L60_180.png","70","image-keyboard-response","25","64416","0.0-6.0-1.9","ADKI","3","m","rechts","22","","","self","f","60","true"
"null","<div style=""font-size:60px;"">+</div>","null","html-keyboard-response","26","64920","0.0-6.0-0.10","ADKI","3","m","rechts","22","","fixation","","","",""
"736","img/120_180.png","74","image-keyboard-response","27","65678","0.0-6.0-1.10","ADKI","3","m","rechts","22","","","self","j","120","true"
"null","<div style=""font-size:60px;"">+</div>","null","html-keyboard-response","28","66186","0.0-6.0-0.11","ADKI","3","m","rechts","22","","fixation","","","",""
"754","img/120_150.png","70","image-keyboard-response","29","66958","0.0-6.0-1.11","ADKI","3","m","rechts","22","","","self","f","120","true"
"null","<div style=""font-size:60px;"">+</div>","null","html-keyboard-response","30","67482","0.0-6.0-0.12","ADKI","3","m","rechts","22","","fixation","","","",""
"965","img/150_300.png","74","image-keyboard-response","31","68468","0.0-6.0-1.12","ADKI","3","m","rechts","22","","","self","j","150","true"
"null","<div style=""font-size:60px;"">+</div>","null","html-keyboard-response","32","68826","0.0-6.0-0.13","ADKI","3","m","rechts","22","","fixation","","","",""
"816","img/90_330.png","70","image-keyboard-response","33","69659","0.0-6.0-1.13","ADKI","3","m","rechts","22","","","self","f","90","true"
"null","<div style=""font-size:60px;"">+</div>","null","html-keyboard-response","34","70013","0.0-6.0-0.14","ADKI","3","m","rechts","22","","fixation","","","",""
"871","img/90_120.png","70","image-keyboard-response","35","70909","0.0-6.0-1.14","ADKI","3","m","rechts","22","","","self","f","90","true"
"null","<div style=""font-size:60px;"">+</div>","null","html-keyboard-response","36","71419","0.0-6.0-0.15","ADKI","3","m","rechts","22","","fixation","","","",""
"740","img/L90_180.png","70","image-keyboard-response","37","72180","0.0-6.0-1.15","ADKI","3","m","rechts","22","","","self","f","90","true"
"null","<div style=""font-size:60px;"">+</div>","null","html-keyboard-response","38","72653","0.0-6.0-0.16","ADKI","3","m","rechts","22","","fixation","","","",""
"689","img/0_300.png","70","image-keyboard-response","39","73362","0.0-6.0-1.16","ADKI","3","m","rechts","22","","","self","f","0","true"
"null","<div style=""font-size:60px;"">+</div>","null","html-keyboard-response","40","73685","0.0-6.0-0.17","ADKI","3","m","rechts","22","","fixation","","","",""
"626","img/0_240.png","70","image-keyboard-response","41","74328","0.0-6.0-1.17","ADKI","3","m","rechts","22","","","self","f","0","true"
"null","<div style=""font-size:60px;"">+</div>","null","html-keyboard-response","42","74641","0.0-6.0-0.18","ADKI","3","m","rechts","22","","fixation","","","",""
"963","img/120_30.png","74","image-keyboard-response","43","75622","0.0-6.0-1.18","ADKI","3","m","rechts","22","","","self","j","120","true"
"null","<div style=""font-size:60px;"">+</div>","null","html-keyboard-response","44","76047","0.0-6.0-0.19","ADKI","3","m","rechts","22","","fixation","","","",""
"596","img/30_270.png","70","image-keyboard-response","45","76655","0.0-6.0-1.19","ADKI","3","m","rechts","22","","","self","f","30","true"
"null","<div style=""font-size:60px;"">+</div>","null","html-keyboard-response","46","77110","0.0-6.0-0.20","ADKI","3","m","rechts","22","","fixation","","","",""
"700","img/90_150.png","70","image-keyboard-response","47","77828","0.0-6.0-1.20","ADKI","3","m","rechts","22","","","self","f","90","true"
"null","<div style=""font-size:60px;"">+</div>","null","html-keyboard-response","48","78141","0.0-6.0-0.21","ADKI","3","m","rechts","22","","fixation","","","",""
"624","img/0_210.png","70","image-keyboard-response","49","78783","0.0-6.0-1.21","ADKI","3","m","rechts","22","","","self","f","0","true"
"null","<div style=""font-size:60px;"">+</div>","null","html-keyboard-response","50","79095","0.0-6.0-0.22","ADKI","3","m","rechts","22","","fixation","","","",""
"764","img/L120_180.png","70","image-keyboard-response","51","79876","0.0-6.0-1.22","ADKI","3","m","rechts","22","","","self","f","120","true"
"null","<div style=""font-size:60px;"">+</div>","null","html-keyboard-response","52","80252","0.0-6.0-0.23","ADKI","3","m","rechts","22","","fixation","","","",""
"998","img/30_120.png","74","image-keyboard-response","53","81257","0.0-6.0-1.23","ADKI","3","m","rechts","22","","","self","j","30","true"
"null","<div style=""font-size:60px;"">+</div>","null","html-keyboard-response","54","81674","0.0-6.0-0.24","ADKI","3","m","rechts","22","","fixation","","","",""
"589","img/0_30.png","74","image-keyboard-response","55","82281","0.0-6.0-1.24","ADKI","3","m","rechts","22","","","self","j","0","true"
"null","<div style=""font-size:60px;"">+</div>","null","html-keyboard-response","56","82736","0.0-6.0-0.25","ADKI","3","m","rechts","22","","fixation","","","",""
"898","img/150_90.png","70","image-keyboard-response","57","83655","0.0-6.0-1.25","ADKI","3","m","rechts","22","","","self","f","150","true"
"null","<div style=""font-size:60px;"">+</div>","null","html-keyboard-response","58","83970","0.0-6.0-0.26","ADKI","3","m","rechts","22","","fixation","","","",""
"837","img/60_150.png","70","image-keyboard-response","59","84825","0.0-6.0-1.26","ADKI","3","m","rechts","22","","","self","f","60","true"
"null","<div style=""font-size:60px;"">+</div>","null","html-keyboard-response","60","85284","0.0-6.0-0.27","ADKI","3","m","rechts","22","","fixation","","","",""
"683","img/30_90.png","74","image-keyboard-response","61","85983","0.0-6.0-1.27","ADKI","3","m","rechts","22","","","self","j","30","true"
"null","<div style=""font-size:60px;"">+</div>","null","html-keyboard-response","62","86346","0.0-6.0-0.28","ADKI","3","m","rechts","22","","fixation","","","",""
"757","img/60_270.png","70","image-keyboard-response","63","87121","0.0-6.0-1.28","ADKI","3","m","rechts","22","","","self","f","60","true"
"null","<div style=""font-size:60px;"">+</div>","null","html-keyboard-response","64","87627","0.0-6.0-0.29","ADKI","3","m","rechts","22","","fixation","","","",""
"632","img/0_150.png","74","image-keyboard-response","65","88276","0.0-6.0-1.29","ADKI","3","m","rechts","22","","","self","j","0","true"
"null","<div style=""font-size:60px;"">+</div>","null","html-keyboard-response","66","88579","0.0-6.0-0.30","ADKI","3","m","rechts","22","","fixation","","","",""
"682","img/L30_180.png","70","image-keyboard-response","67","89267","0.0-6.0-1.30","ADKI","3","m","rechts","22","","","self","f","30","true"
"null","<div style=""font-size:60px;"">+</div>","null","html-keyboard-response","68","89627","0.0-6.0-0.31","ADKI","3","m","rechts","22","","fixation","","","",""
"771","img/150_120.png","70","image-keyboard-response","69","90404","0.0-6.0-1.31","ADKI","3","m","rechts","22","","","self","f","150","true"
"null","<div style=""font-size:60px;"">+</div>","null","html-keyboard-response","70","90784","0.0-6.0-0.32","ADKI","3","m","rechts","22","","fixation","","","",""
"900","img/90_240.png","74","image-keyboard-response","71","91699","0.0-6.0-1.32","ADKI","3","m","rechts","22","","","self","j","90","true"
"null","<div style=""font-size:60px;"">+</div>","null","html-keyboard-response","72","92112","0.0-6.0-0.33","ADKI","3","m","rechts","22","","fixation","","","",""
"681","img/30_300.png","70","image-keyboard-response","73","92801","0.0-6.0-1.33","ADKI","3","m","rechts","22","","","self","f","30","true"
"null","<div style=""font-size:60px;"">+</div>","null","html-keyboard-response","74","93221","0.0-6.0-0.34","ADKI","3","m","rechts","22","","fixation","","","",""
"785","img/60_30.png","74","image-keyboard-response","75","94026","0.0-6.0-1.34","ADKI","3","m","rechts","22","","","self","j","60","true"
"null","<div style=""font-size:60px;"">+</div>","null","html-keyboard-response","76","94487","0.0-6.0-0.35","ADKI","3","m","rechts","22","","fixation","","","",""
"598","img/0_330.png","70","image-keyboard-response","77","95094","0.0-6.0-1.35","ADKI","3","m","rechts","22","","","self","f","0","true"
"null","<div style=""font-size:60px;"">+</div>","null","html-keyboard-response","78","95410","0.0-6.0-0.36","ADKI","3","m","rechts","22","","fixation","","","",""
"645","img/90_30.png","74","image-keyboard-response","79","96073","0.0-6.0-1.36","ADKI","3","m","rechts","22","","","self","j","90","true"
"null","<div style=""font-size:60px;"">+</div>","null","html-keyboard-response","80","96442","0.0-6.0-0.37","ADKI","3","m","rechts","22","","fixation","","","",""
"837","img/L150_180.png","70","image-keyboard-response","81","97299","0.0-6.0-1.37","ADKI","3","m","rechts","22","","","self","f","150","true"
"null","<div style=""font-size:60px;"">+</div>","null","html-keyboard-response","82","97675","0.0-6.0-0.38","ADKI","3","m","rechts","22","","fixation","","","",""
"719","img/90_210.png","74","image-keyboard-response","83","98413","0.0-6.0-1.38","ADKI","3","m","rechts","22","","","self","j","90","true"
"null","<div style=""font-size:60px;"">+</div>","null","html-keyboard-response","84","98816","0.0-6.0-0.39","ADKI","3","m","rechts","22","","fixation","","","",""
"618","img/30_60.png","74","image-keyboard-response","85","99449","0.0-6.0-1.39","ADKI","3","m","rechts","22","","","self","j","30","true"
"null","<div style=""font-size:60px;"">+</div>","null","html-keyboard-response","86","99911","0.0-6.0-0.40","ADKI","3","m","rechts","22","","fixation","","","",""
"610","img/60_90.png","74","image-keyboard-response","87","100539","0.0-6.0-1.40","ADKI","3","m","rechts","22","","","self","j","60","true"
"null","<div style=""font-size:60px;"">+</div>","null","html-keyboard-response","88","100958","0.0-6.0-0.41","ADKI","3","m","rechts","22","","fixation","","","",""
"907","img/30_180.png","74","image-keyboard-response","89","101878","0.0-6.0-1.41","ADKI","3","m","rechts","22","","","self","j","30","true"
"null","<div style=""font-size:60px;"">+</div>","null","html-keyboard-response","90","102286","0.0-6.0-0.42","ADKI","3","m","rechts","22","","fixation","","","",""
"768","img/120_90.png","70","image-keyboard-response","91","103059","0.0-6.0-1.42","ADKI","3","m","rechts","22","","","self","f","120","true"
"null","<div style=""font-size:60px;"">+</div>","null","html-keyboard-response","92","103363","0.0-6.0-0.43","ADKI","3","m","rechts","22","","fixation","","","",""
"611","img/150_240.png","74","image-keyboard-response","93","103980","0.0-6.0-1.43","ADKI","3","m","rechts","22","","","self","j","150","true"
"null","<div style=""font-size:60px;"">+</div>","null","html-keyboard-response","94","104396","0.0-6.0-0.44","ADKI","3","m","rechts","22","","fixation","","","",""
"551","img/0_120.png","74","image-keyboard-response","95","104960","0.0-6.0-1.44","ADKI","3","m","rechts","22","","","self","j","0","true"
"null","<div style=""font-size:60px;"">+</div>","null","html-keyboard-response","96","105412","0.0-6.0-0.45","ADKI","3","m","rechts","22","","fixation","","","",""
"611","img/120_210.png","74","image-keyboard-response","97","106029","0.0-6.0-1.45","ADKI","3","m","rechts","22","","","self","j","120","true"
"null","<div style=""font-size:60px;"">+</div>","null","html-keyboard-response","98","106349","0.0-6.0-0.46","ADKI","3","m","rechts","22","","fixation","","","",""
"495","img/0_90.png","74","image-keyboard-response","99","106860","0.0-6.0-1.46","ADKI","3","m","rechts","22","","","self","j","0","true"
"null","<div style=""font-size:60px;"">+</div>","null","html-keyboard-response","100","107364","0.0-6.0-0.47","ADKI","3","m","rechts","22","","fixation","","","",""
"740","img/60_210.png","74","image-keyboard-response","101","108112","0.0-6.0-1.47","ADKI","3","m","rechts","22","","","self","j","60","true"
"null","<div style=""font-size:60px;"">+</div>","null","html-keyboard-response","102","108474","0.0-6.0-0.48","ADKI","3","m","rechts","22","","fixation","","","",""
"757","img/120_270.png","74","image-keyboard-response","103","109245","0.0-6.0-1.48","ADKI","3","m","rechts","22","","","self","j","120","true"
"null","<div style=""font-size:60px;"">+</div>","null","html-keyboard-response","104","109756","0.0-6.0-0.49","ADKI","3","m","rechts","22","","fixation","","","",""
"993","img/150_270.png","74","image-keyboard-response","105","110757","0.0-6.0-1.49","ADKI","3","m","rechts","22","","","self","j","150","true"
"null","<div style=""font-size:60px;"">+</div>","null","html-keyboard-response","106","111218","0.0-6.0-0.50","ADKI","3","m","rechts","22","","fixation","","","",""
"553","img/60_180.png","74","image-keyboard-response","107","111778","0.0-6.0-1.50","ADKI","3","m","rechts","22","","","self","j","60","true"
"null","<div style=""font-size:60px;"">+</div>","null","html-keyboard-response","108","112233","0.0-6.0-0.51","ADKI","3","m","rechts","22","","fixation","","","",""
"618","img/90_300.png","70","image-keyboard-response","109","112858","0.0-6.0-1.51","ADKI","3","m","rechts","22","","","self","f","90","true"
"null","<div style=""font-size:60px;"">+</div>","null","html-keyboard-response","110","113312","0.0-6.0-0.52","ADKI","3","m","rechts","22","","fixation","","","",""
"633","img/90_330.png","70","image-keyboard-response","111","113949","0.0-6.0-1.52","ADKI","3","m","rechts","22","","","self","f","90","true"
"null","<div style=""font-size:60px;"">+</div>","null","html-keyboard-response","112","114320","0.0-6.0-0.53","ADKI","3","m","rechts","22","","fixation","","","",""
"954","img/30_180.png","74","image-keyboard-response","113","115277","0.0-6.0-1.53","ADKI","3","m","rechts","22","","","self","j","30","true"
"null","<div style=""font-size:60px;"">+</div>","null","html-keyboard-response","114","115649","0.0-6.0-0.54","ADKI","3","m","rechts","22","","fixation","","","",""
"656","img/60_330.png","70","image-keyboard-response","115","116313","0.0-6.0-1.54","ADKI","3","m","rechts","22","","","self","f","60","true"
"null","<div style=""font-size:60px;"">+</div>","null","html-keyboard-response","116","116819","0.0-6.0-0.55","ADKI","3","m","rechts","22","","fixation","","","",""
"694","img/30_60.png","74","image-keyboard-response","117","117518","0.0-6.0-1.55","ADKI","3","m","rechts","22","","","self","j","30","true"
"null","<div style=""font-size:60px;"">+</div>","null","html-keyboard-response","118","117898","0.0-6.0-0.56","ADKI","3","m","rechts","22","","fixation","","","",""
"976","img/L150_180.png","70","image-keyboard-response","119","118888","0.0-6.0-1.56","ADKI","3","m","rechts","22","","","self","f","150","true"
"null","<div style=""font-size:60px;"">+</div>","null","html-keyboard-response","120","119196","0.0-6.0-0.57","ADKI","3","m","rechts","22","","fixation","","","",""
"1062","img/60_270.png","70","image-keyboard-response","121","120263","0.0-6.0-1.57","ADKI","3","m","rechts","22","","","self","f","60","true"
"null","<div style=""font-size:60px;"">+</div>","null","html-keyboard-response","122","120774","0.0-6.0-0.58","ADKI","3","m","rechts","22","","fixation","","","",""
"623","img/0_300.png","70","image-keyboard-response","123","121410","0.0-6.0-1.58","ADKI","3","m","rechts","22","","","self","f","0","true"
"null","<div style=""font-size:60px;"">+</div>","null","html-keyboard-response","124","121868","0.0-6.0-0.59","ADKI","3","m","rechts","22","","fixation","","","",""
"611","img/90_210.png","74","image-keyboard-response","125","122491","0.0-6.0-1.59","ADKI","3","m","rechts","22","","","self","j","90","true"
"null","<div style=""font-size:60px;"">+</div>","null","html-keyboard-response","126","122806","0.0-6.0-0.60","ADKI","3","m","rechts","22","","fixation","","","",""
"819","img/90_60.png","74","image-keyboard-response","127","123637","0.0-6.0-1.60","ADKI","3","m","rechts","22","","","self","j","90","true"
"null","<div style=""font-size:60px;"">+</div>","null","html-keyboard-response","128","124103","0.0-6.0-0.61","ADKI","3","m","rechts","22","","fixation","","","",""
"615","img/L60_180.png","70","image-keyboard-response","129","124730","0.0-6.0-1.61","ADKI","3","m","rechts","22","","","self","f","60","true"
"null","<div style=""font-size:60px;"">+</div>","null","html-keyboard-response","130","125259","0.0-6.0-0.62","ADKI","3","m","rechts","22","","fixation","","","",""
"746","img/60_30.png","74","image-keyboard-response","131","126020","0.0-6.0-1.62","ADKI","3","m","rechts","22","","","self","j","60","true"
"null","<div style=""font-size:60px;"">+</div>","null","html-keyboard-response","132","126383","0.0-6.0-0.63","ADKI","3","m","rechts","22","","fixation","","","",""
"705","img/120_90.png","70","image-keyboard-response","133","127103","0.0-6.0-1.63","ADKI","3","m","rechts","22","","","self","f","120","true"
"null","<div style=""font-size:60px;"">+</div>","null","html-keyboard-response","134","127603","0.0-6.0-0.64","ADKI","3","m","rechts","22","","fixation","","","",""
"521","img/0_60.png","74","image-keyboard-response","135","128136","0.0-6.0-1.64","ADKI","3","m","rechts","22","","","self","j","0","true"
"null","<div style=""font-size:60px;"">+</div>","null","html-keyboard-response","136","128493","0.0-6.0-0.65","ADKI","3","m","rechts","22","","fixation","","","",""
"1205","img/150_300.png","74","image-keyboard-response","137","129714","0.0-6.0-1.65","ADKI","3","m","rechts","22","","","self","j","150","true"
"null","<div style=""font-size:60px;"">+</div>","null","html-keyboard-response","138","130073","0.0-6.0-0.66","ADKI","3","m","rechts","22","","fixation","","","",""
"701","img/0_120.png","74","image-keyboard-response","139","130782","0.0-6.0-1.66","ADKI","3","m","rechts","22","","","self","j","0","true"
"null","<div style=""font-size:60px;"">+</div>","null","html-keyboard-response","140","131245","0.0-6.0-0.67","ADKI","3","m","rechts","22","","fixation","","","",""
"717","img/120_330.png","70","image-keyboard-response","141","131974","0.0-6.0-1.67","ADKI","3","m","rechts","22","","","self","f","120","true"
"null","<div style=""font-size:60px;"">+</div>","null","html-keyboard-response","142","132432","0.0-6.0-0.68","ADKI","3","m","rechts","22","","fixation","","","",""
"822","img/150_60.png","70","image-keyboard-response","143","133267","0.0-6.0-1.68","ADKI","3","m","rechts","22","","","self","f","150","true"
"null","<div style=""font-size:60px;"">+</div>","null","html-keyboard-response","144","133573","0.0-6.0-0.69","ADKI","3","m","rechts","22","","fixation","","","",""
"773","img/0_240.png","70","image-keyboard-response","145","134358","0.0-6.0-1.69","ADKI","3","m","rechts","22","","","self","f","0","true"
"null","<div style=""font-size:60px;"">+</div>","null","html-keyboard-response","146","134728","0.0-6.0-0.70","ADKI","3","m","rechts","22","","fixation","","","",""
"897","img/60_180.png","74","image-keyboard-response","147","135630","0.0-6.0-1.70","ADKI","3","m","rechts","22","","","self","j","60","true"
"null","<div style=""font-size:60px;"">+</div>","null","html-keyboard-response","148","136057","0.0-6.0-0.71","ADKI","3","m","rechts","22","","fixation","","","",""
"963","img/120_210.png","74","image-keyboard-response","149","137027","0.0-6.0-1.71","ADKI","3","m","rechts","22","","","self","j","120","true"
"null","<div style=""font-size:60px;"">+</div>","null","html-keyboard-response","150","137354","0.0-6.0-0.72","ADKI","3","m","rechts","22","","fixation","","","",""
"670","img/0_30.png","74","image-keyboard-response","151","138038","0.0-6.0-1.72","ADKI","3","m","rechts","22","","","self","j","0","true"
"null","<div style=""font-size:60px;"">+</div>","null","html-keyboard-response","152","138510","0.0-6.0-0.73","ADKI","3","m","rechts","22","","fixation","","","",""
"618","img/L120_180.png","70","image-keyboard-response","153","139142","0.0-6.0-1.73","ADKI","3","m","rechts","22","","","self","f","120","true"
"null","<div style=""font-size:60px;"">+</div>","null","html-keyboard-response","154","139558","0.0-6.0-0.74","ADKI","3","m","rechts","22","","fixation","","","",""
"558","img/0_330.png","70","image-keyboard-response","155","140131","0.0-6.0-1.74","ADKI","3","m","rechts","22","","","self","f","0","true"
"null","<div style=""font-size:60px;"">+</div>","null","html-keyboard-response","156","140559","0.0-6.0-0.75","ADKI","3","m","rechts","22","","fixation","","","",""
"691","img/90_240.png","74","image-keyboard-response","157","141264","0.0-6.0-1.75","ADKI","3","m","rechts","22","","","self","j","90","true"
"null","<div style=""font-size:60px;"">+</div>","null","html-keyboard-response","158","141620","0.0-6.0-0.76","ADKI","3","m","rechts","22","","fixation","","","",""
"601","img/60_210.png","74","image-keyboard-response","159","142234","0.0-6.0-1.76","ADKI","3","m","rechts","22","","","self","j","60","true"
"null","<div style=""font-size:60px;"">+</div>","null","html-keyboard-response","160","142652","0.0-6.0-0.77","ADKI","3","m","rechts","22","","fixation","","","",""
"796","img/120_30.png","74","image-keyboard-response","161","143461","0.0-6.0-1.77","ADKI","3","m","rechts","22","","","self","j","120","true"
"null","<div style=""font-size:60px;"">+</div>","null","html-keyboard-response","162","143870","0.0-6.0-0.78","ADKI","3","m","rechts","22","","fixation","","","",""
"870","img/60_90.png","74","image-keyboard-response","163","144754","0.0-6.0-1.78","ADKI","3","m","rechts","22","","","self","j","60","true"
"null","<div style=""font-size:60px;"">+</div>","null","html-keyboard-response","164","145261","0.0-6.0-0.79","ADKI","3","m","rechts","22","","fixation","","","",""
"898","img/90_180.png","74","image-keyboard-response","165","146174","0.0-6.0-1.79","ADKI","3","m","rechts","22","","","self","j","90","true"
"null","<div style=""font-size:60px;"">+</div>","null","html-keyboard-response","166","146652","0.0-6.0-0.80","ADKI","3","m","rechts","22","","fixation","","","",""
"777","img/150_120.png","70","image-keyboard-response","167","147443","0.0-6.0-1.80","ADKI","3","m","rechts","22","","","self","f","150","true"
"null","<div style=""font-size:60px;"">+</div>","null","html-keyboard-response","168","147865","0.0-6.0-0.81","ADKI","3","m","rechts","22","","fixation","","","",""
"677","img/0_270.png","70","image-keyboard-response","169","148557","0.0-6.0-1.81","ADKI","3","m","rechts","22","","","self","f","0","true"
"null","<div style=""font-size:60px;"">+</div>","null","html-keyboard-response","170","148913","0.0-6.0-0.82","ADKI","3","m","rechts","22","","fixation","","","",""
"756","img/90_120.png","70","image-keyboard-response","171","149682","0.0-6.0-1.82","ADKI","3","m","rechts","22","","","self","f","90","true"
"null","<div style=""font-size:60px;"">+</div>","null","html-keyboard-response","172","149997","0.0-6.0-0.83","ADKI","3","m","rechts","22","","fixation","","","",""
"807","img/150_90.png","70","image-keyboard-response","173","150819","0.0-6.0-1.83","ADKI","3","m","rechts","22","","","self","f","150","true"
"null","<div style=""font-size:60px;"">+</div>","null","html-keyboard-response","174","151341","0.0-6.0-0.84","ADKI","3","m","rechts","22","","fixation","","","",""
"791","img/L30_180.png","70","image-keyboard-response","175","152144","0.0-6.0-1.84","ADKI","3","m","rechts","22","","","self","f","30","true"
"null","<div style=""font-size:60px;"">+</div>","null","html-keyboard-response","176","152450","0.0-6.0-0.85","ADKI","3","m","rechts","22","","fixation","","","",""
"841","img/90_300.png","70","image-keyboard-response","177","153304","0.0-6.0-1.85","ADKI","3","m","rechts","22","","","self","f","90","true"
"null","<div style=""font-size:60px;"">+</div>","null","html-keyboard-response","178","153810","0.0-6.0-0.86","ADKI","3","m","rechts","22","","fixation","","","",""
"967","img/120_180.png","74","image-keyboard-response","179","154790","0.0-6.0-1.86","ADKI","3","m","rechts","22","","","self","j","120","true"
"null","<div style=""font-size:60px;"">+</div>","null","html-keyboard-response","180","155247","0.0-6.0-0.87","ADKI","3","m","rechts","22","","fixation","","","",""
"1037","img/90_150.png","70","image-keyboard-response","181","156298","0.0-6.0-1.87","ADKI","3","m","rechts","22","","","self","f","90","true"
"null","<div style=""font-size:60px;"">+</div>","null","html-keyboard-response","182","156778","0.0-6.0-0.88","ADKI","3","m","rechts","22","","fixation","","","",""
"631","img/0_90.png","74","image-keyboard-response","183","157421","0.0-6.0-1.88","ADKI","3","m","rechts","22","","","self","j","0","true"
"null","<div style=""font-size:60px;"">+</div>","null","html-keyboard-response","184","157824","0.0-6.0-0.89","ADKI","3","m","rechts","22","","fixation","","","",""
"642","img/120_150.png","70","image-keyboard-response","185","158480","0.0-6.0-1.89","ADKI","3","m","rechts","22","","","self","f","120","true"
"null","<div style=""font-size:60px;"">+</div>","null","html-keyboard-response","186","158809","0.0-6.0-0.90","ADKI","3","m","rechts","22","","fixation","","","",""
"659","img/60_150.png","70","image-keyboard-response","187","159481","0.0-6.0-1.90","ADKI","3","m","rechts","22","","","self","f","60","true"
"null","<div style=""font-size:60px;"">+</div>","null","html-keyboard-response","188","159935","0.0-6.0-0.91","ADKI","3","m","rechts","22","","fixation","","","",""
"657","img/90_30.png","74","image-keyboard-response","189","160606","0.0-6.0-1.91","ADKI","3","m","rechts","22","","","self","j","90","true"
"null","<div style=""font-size:60px;"">+</div>","null","html-keyboard-response","190","161013","0.0-6.0-0.92","ADKI","3","m","rechts","22","","fixation","","","",""
"861","img/L90_180.png","70","image-keyboard-response","191","161888","0.0-6.0-1.92","ADKI","3","m","rechts","22","","","self","f","90","true"
"null","<div style=""font-size:60px;"">+</div>","null","html-keyboard-response","192","162342","0.0-6.0-0.93","ADKI","3","m","rechts","22","","fixation","","","",""
"545","img/0_210.png","70","image-keyboard-response","193","162901","0.0-6.0-1.93","ADKI","3","m","rechts","22","","","self","f","0","true"
"null","<div style=""font-size:60px;"">+</div>","null","html-keyboard-response","194","163357","0.0-6.0-0.94","ADKI","3","m","rechts","22","","fixation","","","",""
"520","img/30_90.png","74","image-keyboard-response","195","163891","0.0-6.0-1.94","ADKI","3","m","rechts","22","","","self","j","30","true"
"null","<div style=""font-size:60px;"">+</div>","null","html-keyboard-response","196","164420","0.0-6.0-0.95","ADKI","3","m","rechts","22","","fixation","","","",""
"773","img/150_270.png","74","image-keyboard-response","197","165207","0.0-6.0-1.95","ADKI","3","m","rechts","22","","","self","j","150","true"
"null","<div style=""font-size:60px;"">+</div>","null","html-keyboard-response","198","165529","0.0-6.0-0.96","ADKI","3","m","rechts","22","","fixation","","","",""
"553","img/150_240.png","74","image-keyboard-response","199","166096","0.0-6.0-1.96","ADKI","3","m","rechts","22","","","self","j","150","true"
"null","<div style=""font-size:60px;"">+</div>","null","html-keyboard-response","200","166607","0.0-6.0-0.97","ADKI","3","m","rechts","22","","fixation","","","",""
"635","img/30_300.png","70","image-keyboard-response","201","167255","0.0-6.0-1.97","ADKI","3","m","rechts","22","","","self","f","30","true"
"null","<div style=""font-size:60px;"">+</div>","null","html-keyboard-response","202","167670","0.0-6.0-0.98","ADKI","3","m","rechts","22","","fixation","","","",""
"694","img/0_150.png","74","image-keyboard-response","203","168378","0.0-6.0-1.98","ADKI","3","m","rechts","22","","","self","j","0","true"
"null","<div style=""font-size:60px;"">+</div>","null","html-keyboard-response","204","168700","0.0-6.0-0.99","ADKI","3","m","rechts","22","","fixation","","","",""
"725","img/30_270.png","70","image-keyboard-response","205","169438","0.0-6.0-1.99","ADKI","3","m","rechts","22","","","self","f","30","true"
"null","<div style=""font-size:60px;"">+</div>","null","html-keyboard-response","206","169811","0.0-6.0-0.100","ADKI","3","m","rechts","22","","fixation","","","",""
"615","img/30_240.png","70","image-keyboard-response","207","170439","0.0-6.0-1.100","ADKI","3","m","rechts","22","","","self","f","30","true"
"null","<div style=""font-size:60px;"">+</div>","null","html-keyboard-response","208","170764","0.0-6.0-0.101","ADKI","3","m","rechts","22","","fixation","","","",""
"1145","img/120_270.png","74","image-keyboard-response","209","171924","0.0-6.0-1.101","ADKI","3","m","rechts","22","","","self","j","120","true"
"null","<div style=""font-size:60px;"">+</div>","null","html-keyboard-response","210","172389","0.0-6.0-0.102","ADKI","3","m","rechts","22","","fixation","","","",""
"781","img/150_180.png","74","image-keyboard-response","211","173184","0.0-6.0-1.102","ADKI","3","m","rechts","22","","","self","j","150","true"
"null","<div style=""font-size:60px;"">+</div>","null","html-keyboard-response","212","173499","0.0-6.0-0.103","ADKI","3","m","rechts","22","","fixation","","","",""
"921","img/30_120.png","74","image-keyboard-response","213","174433","0.0-6.0-1.103","ADKI","3","m","rechts","22","","","self","j","30","true"
"null","<div style=""font-size:60px;"">+</div>","null","html-keyboard-response","214","174749","0.0-6.0-0.104","ADKI","3","m","rechts","22","","fixation","","","",""
"842","img/90_150.png","70","image-keyboard-response","215","175602","0.0-6.0-1.104","ADKI","3","m","rechts","22","","","self","f","90","true"
"null","<div style=""font-size:60px;"">+</div>","null","html-keyboard-response","216","175921","0.0-6.0-0.105","ADKI","3","m","rechts","22","","fixation","","","",""
"602","img/0_240.png","70","image-keyboard-response","217","176536","0.0-6.0-1.105","ADKI","3","m","rechts","22","","","self","f","0","true"
"null","<div style=""font-size:60px;"">+</div>","null","html-keyboard-response","218","177046","0.0-6.0-0.106","ADKI","3","m","rechts","22","","fixation","","","",""
"556","img/30_180.png","74","image-keyboard-response","219","177616","0.0-6.0-1.106","ADKI","3","m","rechts","22","","","self","j","30","true"
"null","<div style=""font-size:60px;"">+</div>","null","html-keyboard-response","220","177967","0.0-6.0-0.107","ADKI","3","m","rechts","22","","fixation","","","",""
"833","img/150_90.png","70","image-keyboard-response","221","178813","0.0-6.0-1.107","ADKI","3","m","rechts","22","","","self","f","150","true"
"null","<div style=""font-size:60px;"">+</div>","null","html-keyboard-response","222","179329","0.0-6.0-0.108","ADKI","3","m","rechts","22","","fixation","","","",""
"524","img/0_30.png","74","image-keyboard-response","223","179865","0.0-6.0-1.108","ADKI","3","m","rechts","22","","","self","j","0","true"
"null","<div style=""font-size:60px;"">+</div>","null","html-keyboard-response","224","180172","0.0-6.0-0.109","ADKI","3","m","rechts","22","","fixation","","","",""
"811","img/90_330.png","70","image-keyboard-response","225","180992","0.0-6.0-1.109","ADKI","3","m","rechts","22","","","self","f","90","true"
"null","<div style=""font-size:60px;"">+</div>","null","html-keyboard-response","226","181453","0.0-6.0-0.110","ADKI","3","m","rechts","22","","fixation","","","",""
"742","img/30_120.png","74","image-keyboard-response","227","182205","0.0-6.0-1.110","ADKI","3","m","rechts","22","","","self","j","30","true"
"null","<div style=""font-size:60px;"">+</div>","null","html-keyboard-response","228","182610","0.0-6.0-0.111","ADKI","3","m","rechts","22","","fixation","","","",""
"540","img/0_90.png","74","image-keyboard-response","229","183160","0.0-6.0-1.111","ADKI","3","m","rechts","22","","","self","j","0","true"
"null","<div style=""font-size:60px;"">+</div>","null","html-keyboard-response","230","183665","0.0-6.0-0.112","ADKI","3","m","rechts","22","","fixation","","","",""
"681","img/120_30.png","74","image-keyboard-response","231","184355","0.0-6.0-1.112","ADKI","3","m","rechts","22","","","self","j","120","true"
"null","<div style=""font-size:60px;"">+</div>","null","html-keyboard-response","232","184680","0.0-6.0-0.113","ADKI","3","m","rechts","22","","fixation","","","",""
"888","img/90_120.png","70","image-keyboard-response","233","185579","0.0-6.0-1.113","ADKI","3","m","rechts","22","","","self","f","90","true"
"null","<div style=""font-size:60px;"">+</div>","null","html-keyboard-response","234","186054","0.0-6.0-0.114","ADKI","3","m","rechts","22","","fixation","","","",""
"601","img/0_120.png","74","image-keyboard-response","235","186661","0.0-6.0-1.114","ADKI","3","m","rechts","22","","","self","j","0","true"
"null","<div style=""font-size:60px;"">+</div>","null","html-keyboard-response","236","187165","0.0-6.0-0.115","ADKI","3","m","rechts","22","","fixation","","","",""
"976","img/30_240.png","70","image-keyboard-response","237","188147","0.0-6.0-1.115","ADKI","3","m","rechts","22","","","self","f","30","true"
"null","<div style=""font-size:60px;"">+</div>","null","html-keyboard-response","238","188601","0.0-6.0-0.116","ADKI","3","m","rechts","22","","fixation","","","",""
"1050","img/150_270.png","74","image-keyboard-response","239","189665","0.0-6.0-1.116","ADKI","3","m","rechts","22","","","self","j","150","true"
"null","<div style=""font-size:60px;"">+</div>","null","html-keyboard-response","240","189978","0.0-6.0-0.117","ADKI","3","m","rechts","22","","fixation","","","",""
"717","img/120_150.png","70","image-keyboard-response","241","190712","0.0-6.0-1.117","ADKI","3","m","rechts","22","","","self","f","120","true"
"null","<div style=""font-size:60px;"">+</div>","null","html-keyboard-response","242","191228","0.0-6.0-0.118","ADKI","3","m","rechts","22","","fixation","","","",""
"618","img/L60_180.png","70","image-keyboard-response","243","191859","0.0-6.0-1.118","ADKI","3","m","rechts","22","","","self","f","60","true"
"null","<div style=""font-size:60px;"">+</div>","null","html-keyboard-response","244","192274","0.0-6.0-0.119","ADKI","3","m","rechts","22","","fixation","","","",""
"607","img/120_210.png","74","image-keyboard-response","245","192894","0.0-6.0-1.119","ADKI","3","m","rechts","22","","","self","j","120","true"
"null","<div style=""font-size:60px;"">+</div>","null","html-keyboard-response","246","193322","0.0-6.0-0.120","ADKI","3","m","rechts","22","","fixation","","","",""
"1024","img/150_300.png","74","image-keyboard-response","247","194358","0.0-6.0-1.120","ADKI","3","m","rechts","22","","","self","j","150","true"
"null","<div style=""font-size:60px;"">+</div>","null","html-keyboard-response","248","194869","0.0-6.0-0.121","ADKI","3","m","rechts","22","","fixation","","","",""
"819","img/150_120.png","70","image-keyboard-response","249","195693","0.0-6.0-1.121","ADKI","3","m","rechts","22","","","self","f","150","true"
"null","<div style=""font-size:60px;"">+</div>","null","html-keyboard-response","250","196058","0.0-6.0-0.122","ADKI","3","m","rechts","22","","fixation","","","",""
"850","img/120_270.png","74","image-keyboard-response","251","196921","0.0-6.0-1.122","ADKI","3","m","rechts","22","","","self","j","120","true"
"null","<div style=""font-size:60px;"">+</div>","null","html-keyboard-response","252","197386","0.0-6.0-0.123","ADKI","3","m","rechts","22","","fixation","","","",""
"716","img/0_270.png","70","image-keyboard-response","253","198114","0.0-6.0-1.123","ADKI","3","m","rechts","22","","","self","f","0","true"
"null","<div style=""font-size:60px;"">+</div>","null","html-keyboard-response","254","198588","0.0-6.0-0.124","ADKI","3","m","rechts","22","","fixation","","","",""
"700","img/L150_180.png","70","image-keyboard-response","255","199303","0.0-6.0-1.124","ADKI","3","m","rechts","22","","","self","f","150","true"
"null","<div style=""font-size:60px;"">+</div>","null","html-keyboard-response","256","199622","0.0-6.0-0.125","ADKI","3","m","rechts","22","","fixation","","","",""
"1370","img/120_330.png","70","image-keyboard-response","257","201005","0.0-6.0-1.125","ADKI","3","m","rechts","22","","","self","f","120","true"
"null","<div style=""font-size:60px;"">+</div>","null","html-keyboard-response","258","201324","0.0-6.0-0.126","ADKI","3","m","rechts","22","","fixation","","","",""
"1600","img/90_30.png","74","image-keyboard-response","259","202938","0.0-6.0-1.126","ADKI","3","m","rechts","22","","","self","j","90","true"
"null","<div style=""font-size:60px;"">+</div>","null","html-keyboard-response","260","203449","0.0-6.0-0.127","ADKI","3","m","rechts","22","","fixation","","","",""
"692","img/30_60.png","74","image-keyboard-response","261","204154","0.0-6.0-1.127","ADKI","3","m","rechts","22","","","self","j","30","true"
"null","<div style=""font-size:60px;"">+</div>","null","html-keyboard-response","262","204684","0.0-6.0-0.128","ADKI","3","m","rechts","22","","fixation","","","",""
"695","img/60_180.png","74","image-keyboard-response","263","205391","0.0-6.0-1.128","ADKI","3","m","rechts","22","","","self","j","60","true"
"null","<div style=""font-size:60px;"">+</div>","null","html-keyboard-response","264","205793","0.0-6.0-0.129","ADKI","3","m","rechts","22","","fixation","","","",""
"791","img/120_90.png","70","image-keyboard-response","265","206596","0.0-6.0-1.129","ADKI","3","m","rechts","22","","","self","f","120","true"
"null","<div style=""font-size:60px;"">+</div>","null","html-keyboard-response","266","206949","0.0-6.0-0.130","ADKI","3","m","rechts","22","","fixation","","","",""
"659","img/30_90.png","74","image-keyboard-response","267","207621","0.0-6.0-1.130","ADKI","3","m","rechts","22","","","self","j","30","true"
"null","<div style=""font-size:60px;"">+</div>","null","html-keyboard-response","268","208043","0.0-6.0-0.131","ADKI","3","m","rechts","22","","fixation","","","",""
"790","img/60_210.png","74","image-keyboard-response","269","208846","0.0-6.0-1.131","ADKI","3","m","rechts","22","","","self","j","60","true"
"null","<div style=""font-size:60px;"">+</div>","null","html-keyboard-response","270","209372","0.0-6.0-0.132","ADKI","3","m","rechts","22","","fixation","","","",""
"747","img/120_180.png","74","image-keyboard-response","271","210139","0.0-6.0-1.132","ADKI","3","m","rechts","22","","","self","j","120","true"
"null","<div style=""font-size:60px;"">+</div>","null","html-keyboard-response","272","210669","0.0-6.0-0.133","ADKI","3","m","rechts","22","","fixation","","","",""
"1066","img/90_300.png","70","image-keyboard-response","273","211750","0.0-6.0-1.133","ADKI","3","m","rechts","22","","","self","f","90","true"
"null","<div style=""font-size:60px;"">+</div>","null","html-keyboard-response","274","212153","0.0-6.0-0.134","ADKI","3","m","rechts","22","","fixation","","","",""
"870","img/150_60.png","70","image-keyboard-response","275","213032","0.0-6.0-1.134","ADKI","3","m","rechts","22","","","self","f","150","true"
"null","<div style=""font-size:60px;"">+</div>","null","html-keyboard-response","276","213559","0.0-6.0-0.135","ADKI","3","m","rechts","22","","fixation","","","",""
"764","img/150_180.png","74","image-keyboard-response","277","214337","0.0-6.0-1.135","ADKI","3","m","rechts","22","","","self","j","150","true"
"null","<div style=""font-size:60px;"">+</div>","null","html-keyboard-response","278","214809","0.0-6.0-0.136","ADKI","3","m","rechts","22","","fixation","","","",""
"831","img/60_30.png","74","image-keyboard-response","279","215654","0.0-6.0-1.136","ADKI","3","m","rechts","22","","","self","j","60","true"
"null","<div style=""font-size:60px;"">+</div>","null","html-keyboard-response","280","216075","0.0-6.0-0.137","ADKI","3","m","rechts","22","","fixation","","","",""
"677","img/150_240.png","74","image-keyboard-response","281","216766","0.0-6.0-1.137","ADKI","3","m","rechts","22","","","self","j","150","true"
"null","<div style=""font-size:60px;"">+</div>","null","html-keyboard-response","282","217169","0.0-6.0-0.138","ADKI","3","m","rechts","22","","fixation","","","",""
"866","img/90_60.png","70","image-keyboard-response","283","218050","0.0-6.0-1.138","ADKI","3","m","rechts","22","","","self","j","90","false"
"null","<div style=""font-size:60px;"">+</div>","null","html-keyboard-response","284","218574","0.0-6.0-0.139","ADKI","3","m","rechts","22","","fixation","","","",""
"721","img/30_300.png","70","image-keyboard-response","285","219310","0.0-6.0-1.139","ADKI","3","m","rechts","22","","","self","f","30","true"
"null","<div style=""font-size:60px;"">+</div>","null","html-keyboard-response","286","219668","0.0-6.0-0.140","ADKI","3","m","rechts","22","","fixation","","","",""
"665","img/90_180.png","74","image-keyboard-response","287","220349","0.0-6.0-1.140","ADKI","3","m","rechts","22","","","self","j","90","true"
"null","<div style=""font-size:60px;"">+</div>","null","html-keyboard-response","288","220861","0.0-6.0-0.141","ADKI","3","m","rechts","22","","fixation","","","",""
"638","img/0_60.png","74","image-keyboard-response","289","221513","0.0-6.0-1.141","ADKI","3","m","rechts","22","","","self","j","0","true"
"null","<div style=""font-size:60px;"">+</div>","null","html-keyboard-response","290","221986","0.0-6.0-0.142","ADKI","3","m","rechts","22","","fixation","","","",""
"673","img/L90_180.png","70","image-keyboard-response","291","222673","0.0-6.0-1.142","ADKI","3","m","rechts","22","","","self","f","90","true"
"null","<div style=""font-size:60px;"">+</div>","null","html-keyboard-response","292","223033","0.0-6.0-0.143","ADKI","3","m","rechts","22","","fixation","","","",""
"841","img/60_150.png","70","image-keyboard-response","293","223888","0.0-6.0-1.143","ADKI","3","m","rechts","22","","","self","f","60","true"
"null","<div style=""font-size:60px;"">+</div>","null","html-keyboard-response","294","224262","0.0-6.0-0.144","ADKI","3","m","rechts","22","","fixation","","","",""
"675","img/90_210.png","74","image-keyboard-response","295","224946","0.0-6.0-1.144","ADKI","3","m","rechts","22","","","self","j","90","true"
"null","<div style=""font-size:60px;"">+</div>","null","html-keyboard-response","296","225326","0.0-6.0-0.145","ADKI","3","m","rechts","22","","fixation","","","",""
"923","img/90_240.png","74","image-keyboard-response","297","226262","0.0-6.0-1.145","ADKI","3","m","rechts","22","","","self","j","90","true"
"null","<div style=""font-size:60px;"">+</div>","null","html-keyboard-response","298","226623","0.0-6.0-0.146","ADKI","3","m","rechts","22","","fixation","","","",""
"942","img/60_270.png","70","image-keyboard-response","299","227578","0.0-6.0-1.146","ADKI","3","m","rechts","22","","","self","f","60","true"
"null","<div style=""font-size:60px;"">+</div>","null","html-keyboard-response","300","227936","0.0-6.0-0.147","ADKI","3","m","rechts","22","","fixation","","","",""
"619","img/0_210.png","70","image-keyboard-response","301","228567","0.0-6.0-1.147","ADKI","3","m","rechts","22","","","self","f","0","true"
"null","<div style=""font-size:60px;"">+</div>","null","html-keyboard-response","302","229029","0.0-6.0-0.148","ADKI","3","m","rechts","22","","fixation","","","",""
"573","img/30_270.png","70","image-keyboard-response","303","229614","0.0-6.0-1.148","ADKI","3","m","rechts","22","","","self","f","30","true"
"null","<div style=""font-size:60px;"">+</div>","null","html-keyboard-response","304","229968","0.0-6.0-0.149","ADKI","3","m","rechts","22","","fixation","","","",""
"587","img/0_330.png","70","image-keyboard-response","305","230569","0.0-6.0-1.149","ADKI","3","m","rechts","22","","","self","f","0","true"
"null","<div style=""font-size:60px;"">+</div>","null","html-keyboard-response","306","230875","0.0-6.0-0.150","ADKI","3","m","rechts","22","","fixation","","","",""
"569","img/60_330.png","70","image-keyboard-response","307","231459","0.0-6.0-1.150","ADKI","3","m","rechts","22","","","self","f","60","true"
"null","<div style=""font-size:60px;"">+</div>","null","html-keyboard-response","308","231921","0.0-6.0-0.151","ADKI","3","m","rechts","22","","fixation","","","",""
"1055","img/L30_180.png","70","image-keyboard-response","309","232990","0.0-6.0-1.151","ADKI","3","m","rechts","22","","","self","f","30","true"
"null","<div style=""font-size:60px;"">+</div>","null","html-keyboard-response","310","233296","0.0-6.0-0.152","ADKI","3","m","rechts","22","","fixation","","","",""
"613","img/0_150.png","74","image-keyboard-response","311","233923","0.0-6.0-1.152","ADKI","3","m","rechts","22","","","self","j","0","true"
"null","<div style=""font-size:60px;"">+</div>","null","html-keyboard-response","312","234437","0.0-6.0-0.153","ADKI","3","m","rechts","22","","fixation","","","",""
"665","img/L120_180.png","70","image-keyboard-response","313","235116","0.0-6.0-1.153","ADKI","3","m","rechts","22","","","self","f","120","true"
"null","<div style=""font-size:60px;"">+</div>","null","html-keyboard-response","314","235421","0.0-6.0-0.154","ADKI","3","m","rechts","22","","fixation","","","",""
"727","img/60_90.png","74","image-keyboard-response","315","236162","0.0-6.0-1.154","ADKI","3","m","rechts","22","","","self","j","60","true"
"null","<div style=""font-size:60px;"">+</div>","null","html-keyboard-response","316","236577","0.0-6.0-0.155","ADKI","3","m","rechts","22","","fixation","","","",""
"561","img/0_300.png","70","image-keyboard-response","317","237152","0.0-6.0-1.155","ADKI","3","m","rechts","22","","","self","f","0","true"
"null","<div style=""font-size:60px;"">+</div>","null","html-keyboard-response","318","237609","0.0-6.0-0.156","ADKI","3","m","rechts","22","","fixation","","","",""
"490","img/0_60.png","74","image-keyboard-response","319","238109","0.0-6.0-1.156","ADKI","3","m","rechts","22","","","self","j","0","true"
"null","<div style=""font-size:60px;"">+</div>","null","html-keyboard-response","320","238639","0.0-6.0-0.157","ADKI","3","m","rechts","22","","fixation","","","",""
"844","img/90_240.png","70","image-keyboard-response","321","239493","0.0-6.0-1.157","ADKI","3","m","rechts","22","","","self","j","90","false"
"null","<div style=""font-size:60px;"">+</div>","null","html-keyboard-response","322","239796","0.0-6.0-0.158","ADKI","3","m","rechts","22","","fixation","","","",""
"1037","img/150_180.png","74","image-keyboard-response","323","240842","0.0-6.0-1.158","ADKI","3","m","rechts","22","","","self","j","150","true"
"null","<div style=""font-size:60px;"">+</div>","null","html-keyboard-response","324","241295","0.0-6.0-0.159","ADKI","3","m","rechts","22","","fixation","","","",""
"618","img/L90_180.png","70","image-keyboard-response","325","241922","0.0-6.0-1.159","ADKI","3","m","rechts","22","","","self","f","90","true"
"null","<div style=""font-size:60px;"">+</div>","null","html-keyboard-response","326","242326","0.0-6.0-0.160","ADKI","3","m","rechts","22","","fixation","","","",""
"1043","img/90_330.png","70","image-keyboard-response","327","243383","0.0-6.0-1.160","ADKI","3","m","rechts","22","","","self","f","90","true"
"null","<div style=""font-size:60px;"">+</div>","null","html-keyboard-response","328","243889","0.0-6.0-0.161","ADKI","3","m","rechts","22","","fixation","","","",""
"703","img/90_30.png","74","image-keyboard-response","329","244603","0.0-6.0-1.161","ADKI","3","m","rechts","22","","","self","j","90","true"
"null","<div style=""font-size:60px;"">+</div>","null","html-keyboard-response","330","245032","0.0-6.0-0.162","ADKI","3","m","rechts","22","","fixation","","","",""
"616","img/0_330.png","70","image-keyboard-response","331","245657","0.0-6.0-1.162","ADKI","3","m","rechts","22","","","self","f","0","true"
"null","<div style=""font-size:60px;"">+</div>","null","html-keyboard-response","332","246126","0.0-6.0-0.163","ADKI","3","m","rechts","22","","fixation","","","",""
"688","img/150_120.png","70","image-keyboard-response","333","246827","0.0-6.0-1.163","ADKI","3","m","rechts","22","","","self","f","150","true"
"null","<div style=""font-size:60px;"">+</div>","null","html-keyboard-response","334","247142","0.0-6.0-0.164","ADKI","3","m","rechts","22","","fixation","","","",""
"642","img/30_300.png","70","image-keyboard-response","335","247794","0.0-6.0-1.164","ADKI","3","m","rechts","22","","","self","f","30","true"
"null","<div style=""font-size:60px;"">+</div>","null","html-keyboard-response","336","248218","0.0-6.0-0.165","ADKI","3","m","rechts","22","","fixation","","","",""
"615","img/90_300.png","70","image-keyboard-response","337","248840","0.0-6.0-1.165","ADKI","3","m","rechts","22","","","self","f","90","true"
"null","<div style=""font-size:60px;"">+</div>","null","html-keyboard-response","338","249346","0.0-6.0-0.166","ADKI","3","m","rechts","22","","fixation","","","",""
"684","img/120_270.png","74","image-keyboard-response","339","250044","0.0-6.0-1.166","ADKI","3","m","rechts","22","","","self","j","120","true"
"null","<div style=""font-size:60px;"">+</div>","null","html-keyboard-response","340","250565","0.0-6.0-0.167","ADKI","3","m","rechts","22","","fixation","","","",""
"977","img/150_60.png","70","image-keyboard-response","341","251551","0.0-6.0-1.167","ADKI","3","m","rechts","22","","","self","f","150","true"
"null","<div style=""font-size:60px;"">+</div>","null","html-keyboard-response","342","252017","0.0-6.0-0.168","ADKI","3","m","rechts","22","","fixation","","","",""
"623","img/120_210.png","74","image-keyboard-response","343","252654","0.0-6.0-1.168","ADKI","3","m","rechts","22","","","self","j","120","true"
"null","<div style=""font-size:60px;"">+</div>","null","html-keyboard-response","344","253111","0.0-6.0-0.169","ADKI","3","m","rechts","22","","fixation","","","",""
"835","img/120_30.png","74","image-keyboard-response","345","253960","0.0-6.0-1.169","ADKI","3","m","rechts","22","","","self","j","120","true"
"null","<div style=""font-size:60px;"">+</div>","null","html-keyboard-response","346","254425","0.0-6.0-0.170","ADKI","3","m","rechts","22","","fixation","","","",""
"750","img/0_210.png","70","image-keyboard-response","347","255184","0.0-6.0-1.170","ADKI","3","m","rechts","22","","","self","f","0","true"
"null","<div style=""font-size:60px;"">+</div>","null","html-keyboard-response","348","255644","0.0-6.0-0.171","ADKI","3","m","rechts","22","","fixation","","","",""
"710","img/90_150.png","70","image-keyboard-response","349","256368","0.0-6.0-1.171","ADKI","3","m","rechts","22","","","self","f","90","true"
"null","<div style=""font-size:60px;"">+</div>","null","html-keyboard-response","350","256697","0.0-6.0-0.172","ADKI","3","m","rechts","22","","fixation","","","",""
"574","img/0_30.png","74","image-keyboard-response","351","257287","0.0-6.0-1.172","ADKI","3","m","rechts","22","","","self","j","0","true"
"null","<div style=""font-size:60px;"">+</div>","null","html-keyboard-response","352","257648","0.0-6.0-0.173","ADKI","3","m","rechts","22","","fixation","","","",""
"757","img/60_90.png","74","image-keyboard-response","353","258415","0.0-6.0-1.173","ADKI","3","m","rechts","22","","","self","j","60","true"
"null","<div style=""font-size:60px;"">+</div>","null","html-keyboard-response","354","258882","0.0-6.0-0.174","ADKI","3","m","rechts","22","","fixation","","","",""
"579","img/0_150.png","74","image-keyboard-response","355","259472","0.0-6.0-1.174","ADKI","3","m","rechts","22","","","self","j","0","true"
"null","<div style=""font-size:60px;"">+</div>","null","html-keyboard-response","356","259929","0.0-6.0-0.175","ADKI","3","m","rechts","22","","fixation","","","",""
"555","img/0_120.png","74","image-keyboard-response","357","260496","0.0-6.0-1.175","ADKI","3","m","rechts","22","","","self","j","0","true"
"null","<div style=""font-size:60px;"">+</div>","null","html-keyboard-response","358","260804","0.0-6.0-0.176","ADKI","3","m","rechts","22","","fixation","","","",""
"736","img/120_150.png","70","image-keyboard-response","359","261553","0.0-6.0-1.176","ADKI","3","m","rechts","22","","","self","f","120","true"
"null","<div style=""font-size:60px;"">+</div>","null","html-keyboard-response","360","262007","0.0-6.0-0.177","ADKI","3","m","rechts","22","","fixation","","","",""
"500","img/30_60.png","74","image-keyboard-response","361","262521","0.0-6.0-1.177","ADKI","3","m","rechts","22","","","self","j","30","true"
"null","<div style=""font-size:60px;"">+</div>","null","html-keyboard-response","362","262898","0.0-6.0-0.178","ADKI","3","m","rechts","22","","fixation","","","",""
"1093","img/150_300.png","74","image-keyboard-response","363","264006","0.0-6.0-1.178","ADKI","3","m","rechts","22","","","self","j","150","true"
"null","<div style=""font-size:60px;"">+</div>","null","html-keyboard-response","364","264431","0.0-6.0-0.179","ADKI","3","m","rechts","22","","fixation","","","",""
"647","img/90_60.png","74","image-keyboard-response","365","265087","0.0-6.0-1.179","ADKI","3","m","rechts","22","","","self","j","90","true"
"null","<div style=""font-size:60px;"">+</div>","null","html-keyboard-response","366","265447","0.0-6.0-0.180","ADKI","3","m","rechts","22","","fixation","","","",""
"1035","img/60_270.png","70","image-keyboard-response","367","266491","0.0-6.0-1.180","ADKI","3","m","rechts","22","","","self","f","60","true"
"null","<div style=""font-size:60px;"">+</div>","null","html-keyboard-response","368","266806","0.0-6.0-0.181","ADKI","3","m","rechts","22","","fixation","","","",""
"693","img/30_120.png","74","image-keyboard-response","369","267515","0.0-6.0-1.181","ADKI","3","m","rechts","22","","","self","j","30","true"
"null","<div style=""font-size:60px;"">+</div>","null","html-keyboard-response","370","267977","0.0-6.0-0.182","ADKI","3","m","rechts","22","","fixation","","","",""
"979","img/150_240.png","74","image-keyboard-response","371","268967","0.0-6.0-1.182","ADKI","3","m","rechts","22","","","self","j","150","true"
"null","<div style=""font-size:60px;"">+</div>","null","html-keyboard-response","372","269433","0.0-6.0-0.183","ADKI","3","m","rechts","22","","fixation","","","",""
"1235","img/60_330.png","70","image-keyboard-response","373","270678","0.0-6.0-1.183","ADKI","3","m","rechts","22","","","self","f","60","true"
"null","<div style=""font-size:60px;"">+</div>","null","html-keyboard-response","374","271088","0.0-6.0-0.184","ADKI","3","m","rechts","22","","fixation","","","",""
"876","img/120_330.png","70","image-keyboard-response","375","271980","0.0-6.0-1.184","ADKI","3","m","rechts","22","","","self","f","120","true"
"null","<div style=""font-size:60px;"">+</div>","null","html-keyboard-response","376","272449","0.0-6.0-0.185","ADKI","3","m","rechts","22","","fixation","","","",""
"814","img/90_120.png","70","image-keyboard-response","377","273276","0.0-6.0-1.185","ADKI","3","m","rechts","22","","","self","f","90","true"
"null","<div style=""font-size:60px;"">+</div>","null","html-keyboard-response","378","273729","0.0-6.0-0.186","ADKI","3","m","rechts","22","","fixation","","","",""
"759","img/120_90.png","70","image-keyboard-response","379","274503","0.0-6.0-1.186","ADKI","3","m","rechts","22","","","self","f","120","true"
"null","<div style=""font-size:60px;"">+</div>","null","html-keyboard-response","380","275010","0.0-6.0-0.187","ADKI","3","m","rechts","22","","fixation","","","",""
"648","img/0_90.png","74","image-keyboard-response","381","275673","0.0-6.0-1.187","ADKI","3","m","rechts","22","","","self","j","0","true"
"null","<div style=""font-size:60px;"">+</div>","null","html-keyboard-response","382","275994","0.0-6.0-0.188","ADKI","3","m","rechts","22","","fixation","","","",""
"781","img/90_210.png","74","image-keyboard-response","383","276786","0.0-6.0-1.188","ADKI","3","m","rechts","22","","","self","j","90","true"
"null","<div style=""font-size:60px;"">+</div>","null","html-keyboard-response","384","277214","0.0-6.0-0.189","ADKI","3","m","rechts","22","","fixation","","","",""
"541","img/L30_180.png","70","image-keyboard-response","385","277765","0.0-6.0-1.189","ADKI","3","m","rechts","22","","","self","f","30","true"
"null","<div style=""font-size:60px;"">+</div>","null","html-keyboard-response","386","278120","0.0-6.0-0.190","ADKI","3","m","rechts","22","","fixation","","","",""
"678","img/0_270.png","70","image-keyboard-response","387","278811","0.0-6.0-1.190","ADKI","3","m","rechts","22","","","self","f","0","true"
"null","<div style=""font-size:60px;"">+</div>","null","html-keyboard-response","388","279325","0.0-6.0-0.191","ADKI","3","m","rechts","22","","fixation","","","",""
"496","img/0_240.png","70","image-keyboard-response","389","279836","0.0-6.0-1.191","ADKI","3","m","rechts","22","","","self","f","0","true"
"null","<div style=""font-size:60px;"">+</div>","null","html-keyboard-response","390","280340","0.0-6.0-0.192","ADKI","3","m","rechts","22","","fixation","","","",""
"787","img/150_270.png","74","image-keyboard-response","391","281140","0.0-6.0-1.192","ADKI","3","m","rechts","22","","","self","j","150","true"
"null","<div style=""font-size:60px;"">+</div>","null","html-keyboard-response","392","281559","0.0-6.0-0.193","ADKI","3","m","rechts","22","","fixation","","","",""
"727","img/30_90.png","74","image-keyboard-response","393","282299","0.0-6.0-1.193","ADKI","3","m","rechts","22","","","self","j","30","true"
"null","<div style=""font-size:60px;"">+</div>","null","html-keyboard-response","394","282730","0.0-6.0-0.194","ADKI","3","m","rechts","22","","fixation","","","",""
"691","img/120_180.png","74","image-keyboard-response","395","283435","0.0-6.0-1.194","ADKI","3","m","rechts","22","","","self","j","120","true"
"null","<div style=""font-size:60px;"">+</div>","null","html-keyboard-response","396","283950","0.0-6.0-0.195","ADKI","3","m","rechts","22","","fixation","","","",""
"909","img/30_180.png","74","image-keyboard-response","397","284875","0.0-6.0-1.195","ADKI","3","m","rechts","22","","","self","j","30","true"
"null","<div style=""font-size:60px;"">+</div>","null","html-keyboard-response","398","285278","0.0-6.0-0.196","ADKI","3","m","rechts","22","","fixation","","","",""
"905","img/60_150.png","70","image-keyboard-response","399","286192","0.0-6.0-1.196","ADKI","3","m","rechts","22","","","self","f","60","true"
"null","<div style=""font-size:60px;"">+</div>","null","html-keyboard-response","400","286498","0.0-6.0-0.197","ADKI","3","m","rechts","22","","fixation","","","",""
"613","img/90_180.png","74","image-keyboard-response","401","287125","0.0-6.0-1.197","ADKI","3","m","rechts","22","","","self","j","90","true"
"null","<div style=""font-size:60px;"">+</div>","null","html-keyboard-response","402","287482","0.0-6.0-0.198","ADKI","3","m","rechts","22","","fixation","","","",""
"601","img/L120_180.png","70","image-keyboard-response","403","288092","0.0-6.0-1.198","ADKI","3","m","rechts","22","","","self","f","120","true"
"null","<div style=""font-size:60px;"">+</div>","null","html-keyboard-response","404","288450","0.0-6.0-0.199","ADKI","3","m","rechts","22","","fixation","","","",""
"608","img/L60_180.png","70","image-keyboard-response","405","289071","0.0-6.0-1.199","ADKI","3","m","rechts","22","","","self","f","60","true"
"null","<div style=""font-size:60px;"">+</div>","null","html-keyboard-response","406","289435","0.0-6.0-0.200","ADKI","3","m","rechts","22","","fixation","","","",""
"858","img/150_90.png","70","image-keyboard-response","407","290307","0.0-6.0-1.200","ADKI","3","m","rechts","22","","","self","f","150","true"
"null","<div style=""font-size:60px;"">+</div>","null","html-keyboard-response","408","290763","0.0-6.0-0.201","ADKI","3","m","rechts","22","","fixation","","","",""
"635","img/60_180.png","74","image-keyboard-response","409","291412","0.0-6.0-1.201","ADKI","3","m","rechts","22","","","self","j","60","true"
"null","<div style=""font-size:60px;"">+</div>","null","html-keyboard-response","410","291872","0.0-6.0-0.202","ADKI","3","m","rechts","22","","fixation","","","",""
"753","img/60_210.png","74","image-keyboard-response","411","292639","0.0-6.0-1.202","ADKI","3","m","rechts","22","","","self","j","60","true"
"null","<div style=""font-size:60px;"">+</div>","null","html-keyboard-response","412","292950","0.0-6.0-0.203","ADKI","3","m","rechts","22","","fixation","","","",""
"732","img/60_30.png","74","image-keyboard-response","413","293696","0.0-6.0-1.203","ADKI","3","m","rechts","22","","","self","j","60","true"
"null","<div style=""font-size:60px;"">+</div>","null","html-keyboard-response","414","294051","0.0-6.0-0.204","ADKI","3","m","rechts","22","","fixation","","","",""
"1093","img/30_240.png","70","image-keyboard-response","415","295157","0.0-6.0-1.204","ADKI","3","m","rechts","22","","","self","f","30","true"
"null","<div style=""font-size:60px;"">+</div>","null","html-keyboard-response","416","295567","0.0-6.0-0.205","ADKI","3","m","rechts","22","","fixation","","","",""
"593","img/0_300.png","70","image-keyboard-response","417","296171","0.0-6.0-1.205","ADKI","3","m","rechts","22","","","self","f","0","true"
"null","<div style=""font-size:60px;"">+</div>","null","html-keyboard-response","418","296676","0.0-6.0-0.206","ADKI","3","m","rechts","22","","fixation","","","",""
"715","img/L150_180.png","70","image-keyboard-response","419","297408","0.0-6.0-1.206","ADKI","3","m","rechts","22","","","self","f","150","true"
"null","<div style=""font-size:60px;"">+</div>","null","html-keyboard-response","420","297817","0.0-6.0-0.207","ADKI","3","m","rechts","22","","fixation","","","",""
"614","img/30_270.png","70","image-keyboard-response","421","298445","0.0-6.0-1.207","ADKI","3","m","rechts","22","","","self","f","30","true"
"9493","<p>Du hast in 96% der Versuche korrekt entschieden.</p><p>Deine durchschnittliche Reaktionszeit war  761ms.</p><p>Dr&uuml;cke eine beliebige Taste, um die Session zu beenden. Vielen Dank!</p>","32","html-keyboard-response","422","307944","0.0-7.0","ADKI","3","m","rechts","22","","","","","",""
