"rt","stimulus","key_press","trial_type","trial_index","time_elapsed","internal_node_id","subject","session","sex","handedness","age","responses","test_part","condition","correct_response","angle","correct"
"1439","<p>Mental Rotation Experiment.</p> <p>Dr&uuml;cke eine beliebige Taste, um anzufangen.</p>","13","html-keyboard-response","0","1479","0.0-0.0","ADKI","1","m","rechts","22","","","","","",""
"17839","","","survey-text","1","19319","0.0-1.0","ADKI","1","m","rechts","22","{""Q0"":""ADKI""}","","","","",""
"2412","","","survey-text","2","21734","0.0-2.0","ADKI","1","m","rechts","22","{""Q0"":""1""}","","","","",""
"2553","","","survey-multi-choice","3","24293","0.0-3.0","ADKI","1","m","rechts","22","{""Q0"":""m"",""Q1"":""rechts""}","","","","",""
"2364","","","survey-text","4","26658","0.0-4.0","ADKI","1","m","rechts","22","{""Q0"":""22""}","","","","",""
"13842","<p> Stell dir vor, dass du vor einem runden Tisch stehst, auf dem sich ein blauer Ball am Tischrand befindet. Entlang des Tischrands ist jeweils ein verschieden langer Pfeil. Nun bewegst du dich entlang dieses Pfeils bis an seine Spitze. Wenn du am Ende des Pfeils angekommen bist, schau zur Tischmitte. </p> <img src='img/90_180.png'></img> <br> <p>Entscheide dann, ob der Ball von deiner neuen (vorgestellten) Position links oder rechts von dir liegt.</p> <p>Dr&uuml;cke die <strong>'f'</strong>-Taste f&uuml;r links, die <strong>'j'</strong>-Taste f&uuml;r rechts.</p> <br><p> Das Bild wird jeweils 1 Sekunde lang pr&auml;sentiert. Du hast 3 Sekunden Zeit eine Entscheidung zu treffen.</p>","74","html-keyboard-response","5","40513","0.0-5.0","ADKI","1","m","rechts","22","","","","","",""
"null","<div style=""font-size:60px;"">+</div>","null","html-keyboard-response","6","41991","0.0-6.0-0.0","ADKI","1","m","rechts","22","","fixation","","","",""
"1284","img/L60_180.png","70","image-keyboard-response","7","43285","0.0-6.0-1.0","ADKI","1","m","rechts","22","","","self","f","60","true"
"null","<div style=""font-size:60px;"">+</div>","null","html-keyboard-response","8","43656","0.0-6.0-0.1","ADKI","1","m","rechts","22","","fixation","","","",""
"944","img/0_270.png","70","image-keyboard-response","9","44617","0.0-6.0-1.1","ADKI","1","m","rechts","22","","","self","f","0","true"
"null","<div style=""font-size:60px;"">+</div>","null","html-keyboard-response","10","45125","0.0-6.0-0.2","ADKI","1","m","rechts","22","","fixation","","","",""
"1039","img/90_60.png","74","image-keyboard-response","11","46182","0.0-6.0-1.2","ADKI","1","m","rechts","22","","","self","j","90","true"
"null","<div style=""font-size:60px;"">+</div>","null","html-keyboard-response","12","46500","0.0-6.0-0.3","ADKI","1","m","rechts","22","","fixation","","","",""
"860","img/0_90.png","74","image-keyboard-response","13","47376","0.0-6.0-1.3","ADKI","1","m","rechts","22","","","self","j","0","true"
"null","<div style=""font-size:60px;"">+</div>","null","html-keyboard-response","14","47701","0.0-6.0-0.4","ADKI","1","m","rechts","22","","fixation","","","",""
"961","img/120_150.png","70","image-keyboard-response","15","48680","0.0-6.0-1.4","ADKI","1","m","rechts","22","","","self","f","120","true"
"null","<div style=""font-size:60px;"">+</div>","null","html-keyboard-response","16","49093","0.0-6.0-0.5","ADKI","1","m","rechts","22","","fixation","","","",""
"908","img/30_270.png","70","image-keyboard-response","17","50018","0.0-6.0-1.5","ADKI","1","m","rechts","22","","","self","f","30","true"
"null","<div style=""font-size:60px;"">+</div>","null","html-keyboard-response","18","50487","0.0-6.0-0.6","ADKI","1","m","rechts","22","","fixation","","","",""
"932","img/90_330.png","70","image-keyboard-response","19","51437","0.0-6.0-1.6","ADKI","1","m","rechts","22","","","self","f","90","true"
"null","<div style=""font-size:60px;"">+</div>","null","html-keyboard-response","20","51939","0.0-6.0-0.7","ADKI","1","m","rechts","22","","fixation","","","",""
"1168","img/150_300.png","70","image-keyboard-response","21","53124","0.0-6.0-1.7","ADKI","1","m","rechts","22","","","self","j","150","false"
"null","<div style=""font-size:60px;"">+</div>","null","html-keyboard-response","22","53454","0.0-6.0-0.8","ADKI","1","m","rechts","22","","fixation","","","",""
"944","img/30_300.png","70","image-keyboard-response","23","54407","0.0-6.0-1.8","ADKI","1","m","rechts","22","","","self","f","30","true"
"null","<div style=""font-size:60px;"">+</div>","null","html-keyboard-response","24","54767","0.0-6.0-0.9","ADKI","1","m","rechts","22","","fixation","","","",""
"768","img/0_300.png","70","image-keyboard-response","25","55553","0.0-6.0-1.9","ADKI","1","m","rechts","22","","","self","f","0","true"
"null","<div style=""font-size:60px;"">+</div>","null","html-keyboard-response","26","56017","0.0-6.0-0.10","ADKI","1","m","rechts","22","","fixation","","","",""
"1160","img/30_90.png","74","image-keyboard-response","27","57197","0.0-6.0-1.10","ADKI","1","m","rechts","22","","","self","j","30","true"
"null","<div style=""font-size:60px;"">+</div>","null","html-keyboard-response","28","57626","0.0-6.0-0.11","ADKI","1","m","rechts","22","","fixation","","","",""
"1802","img/120_270.png","74","image-keyboard-response","29","59446","0.0-6.0-1.11","ADKI","1","m","rechts","22","","","self","j","120","true"
"null","<div style=""font-size:60px;"">+</div>","null","html-keyboard-response","30","59864","0.0-6.0-0.12","ADKI","1","m","rechts","22","","fixation","","","",""
"1217","img/30_240.png","70","image-keyboard-response","31","61100","0.0-6.0-1.12","ADKI","1","m","rechts","22","","","self","f","30","true"
"null","<div style=""font-size:60px;"">+</div>","null","html-keyboard-response","32","61502","0.0-6.0-0.13","ADKI","1","m","rechts","22","","fixation","","","",""
"999","img/150_120.png","70","image-keyboard-response","33","62519","0.0-6.0-1.13","ADKI","1","m","rechts","22","","","self","f","150","true"
"null","<div style=""font-size:60px;"">+</div>","null","html-keyboard-response","34","62831","0.0-6.0-0.14","ADKI","1","m","rechts","22","","fixation","","","",""
"1095","img/150_90.png","70","image-keyboard-response","35","63947","0.0-6.0-1.14","ADKI","1","m","rechts","22","","","self","f","150","true"
"null","<div style=""font-size:60px;"">+</div>","null","html-keyboard-response","36","64410","0.0-6.0-0.15","ADKI","1","m","rechts","22","","fixation","","","",""
"1159","img/120_30.png","74","image-keyboard-response","37","65588","0.0-6.0-1.15","ADKI","1","m","rechts","22","","","self","j","120","true"
"null","<div style=""font-size:60px;"">+</div>","null","html-keyboard-response","38","65956","0.0-6.0-0.16","ADKI","1","m","rechts","22","","fixation","","","",""
"1134","img/60_90.png","74","image-keyboard-response","39","67108","0.0-6.0-1.16","ADKI","1","m","rechts","22","","","self","j","60","true"
"null","<div style=""font-size:60px;"">+</div>","null","html-keyboard-response","40","67471","0.0-6.0-0.17","ADKI","1","m","rechts","22","","fixation","","","",""
"1056","img/120_210.png","74","image-keyboard-response","41","68548","0.0-6.0-1.17","ADKI","1","m","rechts","22","","","self","j","120","true"
"null","<div style=""font-size:60px;"">+</div>","null","html-keyboard-response","42","68972","0.0-6.0-0.18","ADKI","1","m","rechts","22","","fixation","","","",""
"1134","img/150_270.png","74","image-keyboard-response","43","70122","0.0-6.0-1.18","ADKI","1","m","rechts","22","","","self","j","150","true"
"null","<div style=""font-size:60px;"">+</div>","null","html-keyboard-response","44","70592","0.0-6.0-0.19","ADKI","1","m","rechts","22","","fixation","","","",""
"1008","img/90_180.png","74","image-keyboard-response","45","71606","0.0-6.0-1.19","ADKI","1","m","rechts","22","","","self","j","90","true"
"null","<div style=""font-size:60px;"">+</div>","null","html-keyboard-response","46","72124","0.0-6.0-0.20","ADKI","1","m","rechts","22","","fixation","","","",""
"848","img/0_240.png","70","image-keyboard-response","47","72991","0.0-6.0-1.20","ADKI","1","m","rechts","22","","","self","f","0","true"
"null","<div style=""font-size:60px;"">+</div>","null","html-keyboard-response","48","73419","0.0-6.0-0.21","ADKI","1","m","rechts","22","","fixation","","","",""
"905","img/90_240.png","74","image-keyboard-response","49","74342","0.0-6.0-1.21","ADKI","1","m","rechts","22","","","self","j","90","true"
"null","<div style=""font-size:60px;"">+</div>","null","html-keyboard-response","50","74795","0.0-6.0-0.22","ADKI","1","m","rechts","22","","fixation","","","",""
"1171","img/150_60.png","70","image-keyboard-response","51","75983","0.0-6.0-1.22","ADKI","1","m","rechts","22","","","self","f","150","true"
"null","<div style=""font-size:60px;"">+</div>","null","html-keyboard-response","52","76388","0.0-6.0-0.23","ADKI","1","m","rechts","22","","fixation","","","",""
"1007","img/L120_180.png","70","image-keyboard-response","53","77412","0.0-6.0-1.23","ADKI","1","m","rechts","22","","","self","f","120","true"
"null","<div style=""font-size:60px;"">+</div>","null","html-keyboard-response","54","77715","0.0-6.0-0.24","ADKI","1","m","rechts","22","","fixation","","","",""
"817","img/0_150.png","74","image-keyboard-response","55","78550","0.0-6.0-1.24","ADKI","1","m","rechts","22","","","self","j","0","true"
"null","<div style=""font-size:60px;"">+</div>","null","html-keyboard-response","56","78965","0.0-6.0-0.25","ADKI","1","m","rechts","22","","fixation","","","",""
"995","img/90_120.png","70","image-keyboard-response","57","79978","0.0-6.0-1.25","ADKI","1","m","rechts","22","","","self","f","90","true"
"null","<div style=""font-size:60px;"">+</div>","null","html-keyboard-response","58","80451","0.0-6.0-0.26","ADKI","1","m","rechts","22","","fixation","","","",""
"1006","img/150_180.png","74","image-keyboard-response","59","81475","0.0-6.0-1.26","ADKI","1","m","rechts","22","","","self","j","150","true"
"null","<div style=""font-size:60px;"">+</div>","null","html-keyboard-response","60","81827","0.0-6.0-0.27","ADKI","1","m","rechts","22","","fixation","","","",""
"957","img/60_270.png","70","image-keyboard-response","61","82801","0.0-6.0-1.27","ADKI","1","m","rechts","22","","","self","f","60","true"
"null","<div style=""font-size:60px;"">+</div>","null","html-keyboard-response","62","83312","0.0-6.0-0.28","ADKI","1","m","rechts","22","","fixation","","","",""
"924","img/L30_180.png","70","image-keyboard-response","63","84253","0.0-6.0-1.28","ADKI","1","m","rechts","22","","","self","f","30","true"
"null","<div style=""font-size:60px;"">+</div>","null","html-keyboard-response","64","84734","0.0-6.0-0.29","ADKI","1","m","rechts","22","","fixation","","","",""
"942","img/150_240.png","74","image-keyboard-response","65","85693","0.0-6.0-1.29","ADKI","1","m","rechts","22","","","self","j","150","true"
"null","<div style=""font-size:60px;"">+</div>","null","html-keyboard-response","66","86156","0.0-6.0-0.30","ADKI","1","m","rechts","22","","fixation","","","",""
"903","img/30_120.png","74","image-keyboard-response","67","87077","0.0-6.0-1.30","ADKI","1","m","rechts","22","","","self","j","30","true"
"null","<div style=""font-size:60px;"">+</div>","null","html-keyboard-response","68","87578","0.0-6.0-0.31","ADKI","1","m","rechts","22","","fixation","","","",""
"917","img/90_150.png","70","image-keyboard-response","69","88506","0.0-6.0-1.31","ADKI","1","m","rechts","22","","","self","f","90","true"
"null","<div style=""font-size:60px;"">+</div>","null","html-keyboard-response","70","89016","0.0-6.0-0.32","ADKI","1","m","rechts","22","","fixation","","","",""
"936","img/60_180.png","74","image-keyboard-response","71","89968","0.0-6.0-1.32","ADKI","1","m","rechts","22","","","self","j","60","true"
"null","<div style=""font-size:60px;"">+</div>","null","html-keyboard-response","72","90281","0.0-6.0-0.33","ADKI","1","m","rechts","22","","fixation","","","",""
"817","img/0_30.png","74","image-keyboard-response","73","91116","0.0-6.0-1.33","ADKI","1","m","rechts","22","","","self","j","0","true"
"null","<div style=""font-size:60px;"">+</div>","null","html-keyboard-response","74","91624","0.0-6.0-0.34","ADKI","1","m","rechts","22","","fixation","","","",""
"931","img/60_30.png","74","image-keyboard-response","75","92566","0.0-6.0-1.34","ADKI","1","m","rechts","22","","","self","j","60","true"
"null","<div style=""font-size:60px;"">+</div>","null","html-keyboard-response","76","92875","0.0-6.0-0.35","ADKI","1","m","rechts","22","","fixation","","","",""
"1156","img/90_30.png","74","image-keyboard-response","77","94052","0.0-6.0-1.35","ADKI","1","m","rechts","22","","","self","j","90","true"
"null","<div style=""font-size:60px;"">+</div>","null","html-keyboard-response","78","94420","0.0-6.0-0.36","ADKI","1","m","rechts","22","","fixation","","","",""
"861","img/30_60.png","74","image-keyboard-response","79","95302","0.0-6.0-1.36","ADKI","1","m","rechts","22","","","self","j","30","true"
"null","<div style=""font-size:60px;"">+</div>","null","html-keyboard-response","80","95831","0.0-6.0-0.37","ADKI","1","m","rechts","22","","fixation","","","",""
"1046","img/120_90.png","70","image-keyboard-response","81","96899","0.0-6.0-1.37","ADKI","1","m","rechts","22","","","self","f","120","true"
"null","<div style=""font-size:60px;"">+</div>","null","html-keyboard-response","82","97203","0.0-6.0-0.38","ADKI","1","m","rechts","22","","fixation","","","",""
"848","img/0_210.png","70","image-keyboard-response","83","98068","0.0-6.0-1.38","ADKI","1","m","rechts","22","","","self","f","0","true"
"null","<div style=""font-size:60px;"">+</div>","null","html-keyboard-response","84","98548","0.0-6.0-0.39","ADKI","1","m","rechts","22","","fixation","","","",""
"1076","img/90_210.png","74","image-keyboard-response","85","99641","0.0-6.0-1.39","ADKI","1","m","rechts","22","","","self","j","90","true"
"null","<div style=""font-size:60px;"">+</div>","null","html-keyboard-response","86","100173","0.0-6.0-0.40","ADKI","1","m","rechts","22","","fixation","","","",""
"866","img/120_180.png","74","image-keyboard-response","87","101056","0.0-6.0-1.40","ADKI","1","m","rechts","22","","","self","j","120","true"
"null","<div style=""font-size:60px;"">+</div>","null","html-keyboard-response","88","101563","0.0-6.0-0.41","ADKI","1","m","rechts","22","","fixation","","","",""
"955","img/60_210.png","74","image-keyboard-response","89","102536","0.0-6.0-1.41","ADKI","1","m","rechts","22","","","self","j","60","true"
"null","<div style=""font-size:60px;"">+</div>","null","html-keyboard-response","90","102986","0.0-6.0-0.42","ADKI","1","m","rechts","22","","fixation","","","",""
"733","img/0_60.png","74","image-keyboard-response","91","103738","0.0-6.0-1.42","ADKI","1","m","rechts","22","","","self","j","0","true"
"null","<div style=""font-size:60px;"">+</div>","null","html-keyboard-response","92","104142","0.0-6.0-0.43","ADKI","1","m","rechts","22","","fixation","","","",""
"987","img/60_150.png","70","image-keyboard-response","93","105146","0.0-6.0-1.43","ADKI","1","m","rechts","22","","","self","f","60","true"
"null","<div style=""font-size:60px;"">+</div>","null","html-keyboard-response","94","105658","0.0-6.0-0.44","ADKI","1","m","rechts","22","","fixation","","","",""
"701","img/0_120.png","74","image-keyboard-response","95","106370","0.0-6.0-1.44","ADKI","1","m","rechts","22","","","self","j","0","true"
"null","<div style=""font-size:60px;"">+</div>","null","html-keyboard-response","96","106727","0.0-6.0-0.45","ADKI","1","m","rechts","22","","fixation","","","",""
"887","img/L90_180.png","70","image-keyboard-response","97","107632","0.0-6.0-1.45","ADKI","1","m","rechts","22","","","self","f","90","true"
"null","<div style=""font-size:60px;"">+</div>","null","html-keyboard-response","98","108086","0.0-6.0-0.46","ADKI","1","m","rechts","22","","fixation","","","",""
"952","img/60_330.png","70","image-keyboard-response","99","109057","0.0-6.0-1.46","ADKI","1","m","rechts","22","","","self","f","60","true"
"null","<div style=""font-size:60px;"">+</div>","null","html-keyboard-response","100","109570","0.0-6.0-0.47","ADKI","1","m","rechts","22","","fixation","","","",""
"880","img/90_300.png","70","image-keyboard-response","101","110467","0.0-6.0-1.47","ADKI","1","m","rechts","22","","","self","f","90","true"
"null","<div style=""font-size:60px;"">+</div>","null","html-keyboard-response","102","110774","0.0-6.0-0.48","ADKI","1","m","rechts","22","","fixation","","","",""
"989","img/120_330.png","70","image-keyboard-response","103","111783","0.0-6.0-1.48","ADKI","1","m","rechts","22","","","self","f","120","true"
"null","<div style=""font-size:60px;"">+</div>","null","html-keyboard-response","104","112289","0.0-6.0-0.49","ADKI","1","m","rechts","22","","fixation","","","",""
"1146","img/L150_180.png","70","image-keyboard-response","105","113446","0.0-6.0-1.49","ADKI","1","m","rechts","22","","","self","f","150","true"
"null","<div style=""font-size:60px;"">+</div>","null","html-keyboard-response","106","113977","0.0-6.0-0.50","ADKI","1","m","rechts","22","","fixation","","","",""
"959","img/30_180.png","74","image-keyboard-response","107","114953","0.0-6.0-1.50","ADKI","1","m","rechts","22","","","self","j","30","true"
"null","<div style=""font-size:60px;"">+</div>","null","html-keyboard-response","108","115479","0.0-6.0-0.51","ADKI","1","m","rechts","22","","fixation","","","",""
"718","img/0_330.png","70","image-keyboard-response","109","116215","0.0-6.0-1.51","ADKI","1","m","rechts","22","","","self","f","0","true"
"null","<div style=""font-size:60px;"">+</div>","null","html-keyboard-response","110","116743","0.0-6.0-0.52","ADKI","1","m","rechts","22","","fixation","","","",""
"875","img/L30_180.png","70","image-keyboard-response","111","117628","0.0-6.0-1.52","ADKI","1","m","rechts","22","","","self","f","30","true"
"null","<div style=""font-size:60px;"">+</div>","null","html-keyboard-response","112","117992","0.0-6.0-0.53","ADKI","1","m","rechts","22","","fixation","","","",""
"820","img/L120_180.png","70","image-keyboard-response","113","118825","0.0-6.0-1.53","ADKI","1","m","rechts","22","","","self","f","120","true"
"null","<div style=""font-size:60px;"">+</div>","null","html-keyboard-response","114","119195","0.0-6.0-0.54","ADKI","1","m","rechts","22","","fixation","","","",""
"1036","img/90_30.png","74","image-keyboard-response","115","120242","0.0-6.0-1.54","ADKI","1","m","rechts","22","","","self","j","90","true"
"null","<div style=""font-size:60px;"">+</div>","null","html-keyboard-response","116","120571","0.0-6.0-0.55","ADKI","1","m","rechts","22","","fixation","","","",""
"743","img/0_30.png","74","image-keyboard-response","117","121323","0.0-6.0-1.55","ADKI","1","m","rechts","22","","","self","j","0","true"
"null","<div style=""font-size:60px;"">+</div>","null","html-keyboard-response","118","121649","0.0-6.0-0.56","ADKI","1","m","rechts","22","","fixation","","","",""
"747","img/30_90.png","74","image-keyboard-response","119","122403","0.0-6.0-1.56","ADKI","1","m","rechts","22","","","self","j","30","true"
"null","<div style=""font-size:60px;"">+</div>","null","html-keyboard-response","120","122931","0.0-6.0-0.57","ADKI","1","m","rechts","22","","fixation","","","",""
"909","img/120_210.png","74","image-keyboard-response","121","123855","0.0-6.0-1.57","ADKI","1","m","rechts","22","","","self","j","120","true"
"null","<div style=""font-size:60px;"">+</div>","null","html-keyboard-response","122","124384","0.0-6.0-0.58","ADKI","1","m","rechts","22","","fixation","","","",""
"840","img/30_240.png","70","image-keyboard-response","123","125237","0.0-6.0-1.58","ADKI","1","m","rechts","22","","","self","f","30","true"
"null","<div style=""font-size:60px;"">+</div>","null","html-keyboard-response","124","125543","0.0-6.0-0.59","ADKI","1","m","rechts","22","","fixation","","","",""
"933","img/60_30.png","74","image-keyboard-response","125","126485","0.0-6.0-1.59","ADKI","1","m","rechts","22","","","self","j","60","true"
"null","<div style=""font-size:60px;"">+</div>","null","html-keyboard-response","126","126900","0.0-6.0-0.60","ADKI","1","m","rechts","22","","fixation","","","",""
"957","img/60_90.png","74","image-keyboard-response","127","127870","0.0-6.0-1.60","ADKI","1","m","rechts","22","","","self","j","60","true"
"null","<div style=""font-size:60px;"">+</div>","null","html-keyboard-response","128","128245","0.0-6.0-0.61","ADKI","1","m","rechts","22","","fixation","","","",""
"816","img/L60_180.png","70","image-keyboard-response","129","129074","0.0-6.0-1.61","ADKI","1","m","rechts","22","","","self","f","60","true"
"null","<div style=""font-size:60px;"">+</div>","null","html-keyboard-response","130","129432","0.0-6.0-0.62","ADKI","1","m","rechts","22","","fixation","","","",""
"868","img/90_150.png","70","image-keyboard-response","131","130311","0.0-6.0-1.62","ADKI","1","m","rechts","22","","","self","f","90","true"
"null","<div style=""font-size:60px;"">+</div>","null","html-keyboard-response","132","130778","0.0-6.0-0.63","ADKI","1","m","rechts","22","","fixation","","","",""
"868","img/90_180.png","74","image-keyboard-response","133","131660","0.0-6.0-1.63","ADKI","1","m","rechts","22","","","self","j","90","true"
"null","<div style=""font-size:60px;"">+</div>","null","html-keyboard-response","134","131965","0.0-6.0-0.64","ADKI","1","m","rechts","22","","fixation","","","",""
"876","img/150_270.png","74","image-keyboard-response","135","132853","0.0-6.0-1.64","ADKI","1","m","rechts","22","","","self","j","150","true"
"null","<div style=""font-size:60px;"">+</div>","null","html-keyboard-response","136","133169","0.0-6.0-0.65","ADKI","1","m","rechts","22","","fixation","","","",""
"791","img/L90_180.png","70","image-keyboard-response","137","133968","0.0-6.0-1.65","ADKI","1","m","rechts","22","","","self","f","90","true"
"null","<div style=""font-size:60px;"">+</div>","null","html-keyboard-response","138","134277","0.0-6.0-0.66","ADKI","1","m","rechts","22","","fixation","","","",""
"749","img/30_60.png","74","image-keyboard-response","139","135035","0.0-6.0-1.66","ADKI","1","m","rechts","22","","","self","j","30","true"
"null","<div style=""font-size:60px;"">+</div>","null","html-keyboard-response","140","135558","0.0-6.0-0.67","ADKI","1","m","rechts","22","","fixation","","","",""
"831","img/L150_180.png","70","image-keyboard-response","141","136398","0.0-6.0-1.67","ADKI","1","m","rechts","22","","","self","f","150","true"
"null","<div style=""font-size:60px;"">+</div>","null","html-keyboard-response","142","136714","0.0-6.0-0.68","ADKI","1","m","rechts","22","","fixation","","","",""
"966","img/30_120.png","74","image-keyboard-response","143","137692","0.0-6.0-1.68","ADKI","1","m","rechts","22","","","self","j","30","true"
"null","<div style=""font-size:60px;"">+</div>","null","html-keyboard-response","144","138106","0.0-6.0-0.69","ADKI","1","m","rechts","22","","fixation","","","",""
"768","img/60_150.png","70","image-keyboard-response","145","138883","0.0-6.0-1.69","ADKI","1","m","rechts","22","","","self","f","60","true"
"null","<div style=""font-size:60px;"">+</div>","null","html-keyboard-response","146","139260","0.0-6.0-0.70","ADKI","1","m","rechts","22","","fixation","","","",""
"695","img/30_180.png","74","image-keyboard-response","147","139964","0.0-6.0-1.70","ADKI","1","m","rechts","22","","","self","j","30","true"
"null","<div style=""font-size:60px;"">+</div>","null","html-keyboard-response","148","140295","0.0-6.0-0.71","ADKI","1","m","rechts","22","","fixation","","","",""
"831","img/60_210.png","74","image-keyboard-response","149","141134","0.0-6.0-1.71","ADKI","1","m","rechts","22","","","self","j","60","true"
"null","<div style=""font-size:60px;"">+</div>","null","html-keyboard-response","150","141592","0.0-6.0-0.72","ADKI","1","m","rechts","22","","fixation","","","",""
"698","img/0_150.png","74","image-keyboard-response","151","142303","0.0-6.0-1.72","ADKI","1","m","rechts","22","","","self","j","0","true"
"null","<div style=""font-size:60px;"">+</div>","null","html-keyboard-response","152","142621","0.0-6.0-0.73","ADKI","1","m","rechts","22","","fixation","","","",""
"762","img/120_90.png","70","image-keyboard-response","153","143396","0.0-6.0-1.73","ADKI","1","m","rechts","22","","","self","f","120","true"
"null","<div style=""font-size:60px;"">+</div>","null","html-keyboard-response","154","143762","0.0-6.0-0.74","ADKI","1","m","rechts","22","","fixation","","","",""
"901","img/30_300.png","70","image-keyboard-response","155","144676","0.0-6.0-1.74","ADKI","1","m","rechts","22","","","self","f","30","true"
"null","<div style=""font-size:60px;"">+</div>","null","html-keyboard-response","156","145201","0.0-6.0-0.75","ADKI","1","m","rechts","22","","fixation","","","",""
"869","img/150_90.png","70","image-keyboard-response","157","146083","0.0-6.0-1.75","ADKI","1","m","rechts","22","","","self","f","150","true"
"null","<div style=""font-size:60px;"">+</div>","null","html-keyboard-response","158","146498","0.0-6.0-0.76","ADKI","1","m","rechts","22","","fixation","","","",""
"1474","img/120_30.png","74","image-keyboard-response","159","147986","0.0-6.0-1.76","ADKI","1","m","rechts","22","","","self","j","120","true"
"null","<div style=""font-size:60px;"">+</div>","null","html-keyboard-response","160","148403","0.0-6.0-0.77","ADKI","1","m","rechts","22","","fixation","","","",""
"898","img/60_180.png","74","image-keyboard-response","161","149312","0.0-6.0-1.77","ADKI","1","m","rechts","22","","","self","j","60","true"
"null","<div style=""font-size:60px;"">+</div>","null","html-keyboard-response","162","149732","0.0-6.0-0.78","ADKI","1","m","rechts","22","","fixation","","","",""
"692","img/0_240.png","70","image-keyboard-response","163","150437","0.0-6.0-1.78","ADKI","1","m","rechts","22","","","self","f","0","true"
"null","<div style=""font-size:60px;"">+</div>","null","html-keyboard-response","164","150795","0.0-6.0-0.79","ADKI","1","m","rechts","22","","fixation","","","",""
"1320","img/120_330.png","70","image-keyboard-response","165","152126","0.0-6.0-1.79","ADKI","1","m","rechts","22","","","self","f","120","true"
"null","<div style=""font-size:60px;"">+</div>","null","html-keyboard-response","166","152637","0.0-6.0-0.80","ADKI","1","m","rechts","22","","fixation","","","",""
"716","img/60_330.png","70","image-keyboard-response","167","153360","0.0-6.0-1.80","ADKI","1","m","rechts","22","","","self","f","60","true"
"null","<div style=""font-size:60px;"">+</div>","null","html-keyboard-response","168","153762","0.0-6.0-0.81","ADKI","1","m","rechts","22","","fixation","","","",""
"769","img/60_270.png","70","image-keyboard-response","169","154545","0.0-6.0-1.81","ADKI","1","m","rechts","22","","","self","f","60","true"
"null","<div style=""font-size:60px;"">+</div>","null","html-keyboard-response","170","155047","0.0-6.0-0.82","ADKI","1","m","rechts","22","","fixation","","","",""
"778","img/150_240.png","74","image-keyboard-response","171","155838","0.0-6.0-1.82","ADKI","1","m","rechts","22","","","self","j","150","true"
"null","<div style=""font-size:60px;"">+</div>","null","html-keyboard-response","172","156297","0.0-6.0-0.83","ADKI","1","m","rechts","22","","fixation","","","",""
"877","img/150_180.png","74","image-keyboard-response","173","157189","0.0-6.0-1.83","ADKI","1","m","rechts","22","","","self","j","150","true"
"null","<div style=""font-size:60px;"">+</div>","null","html-keyboard-response","174","157500","0.0-6.0-0.84","ADKI","1","m","rechts","22","","fixation","","","",""
"893","img/0_210.png","70","image-keyboard-response","175","158403","0.0-6.0-1.84","ADKI","1","m","rechts","22","","","self","f","0","true"
"null","<div style=""font-size:60px;"">+</div>","null","html-keyboard-response","176","158874","0.0-6.0-0.85","ADKI","1","m","rechts","22","","fixation","","","",""
"758","img/120_180.png","74","image-keyboard-response","177","159641","0.0-6.0-1.85","ADKI","1","m","rechts","22","","","self","j","120","true"
"null","<div style=""font-size:60px;"">+</div>","null","html-keyboard-response","178","160155","0.0-6.0-0.86","ADKI","1","m","rechts","22","","fixation","","","",""
"934","img/120_270.png","74","image-keyboard-response","179","161103","0.0-6.0-1.86","ADKI","1","m","rechts","22","","","self","j","120","true"
"null","<div style=""font-size:60px;"">+</div>","null","html-keyboard-response","180","161608","0.0-6.0-0.87","ADKI","1","m","rechts","22","","fixation","","","",""
"899","img/90_210.png","74","image-keyboard-response","181","162510","0.0-6.0-1.87","ADKI","1","m","rechts","22","","","self","j","90","true"
"null","<div style=""font-size:60px;"">+</div>","null","html-keyboard-response","182","162812","0.0-6.0-0.88","ADKI","1","m","rechts","22","","fixation","","","",""
"755","img/90_240.png","74","image-keyboard-response","183","163578","0.0-6.0-1.88","ADKI","1","m","rechts","22","","","self","j","90","true"
"null","<div style=""font-size:60px;"">+</div>","null","html-keyboard-response","184","163937","0.0-6.0-0.89","ADKI","1","m","rechts","22","","fixation","","","",""
"723","img/0_120.png","74","image-keyboard-response","185","164669","0.0-6.0-1.89","ADKI","1","m","rechts","22","","","self","j","0","true"
"null","<div style=""font-size:60px;"">+</div>","null","html-keyboard-response","186","165189","0.0-6.0-0.90","ADKI","1","m","rechts","22","","fixation","","","",""
"939","img/150_120.png","70","image-keyboard-response","187","166143","0.0-6.0-1.90","ADKI","1","m","rechts","22","","","self","f","150","true"
"null","<div style=""font-size:60px;"">+</div>","null","html-keyboard-response","188","166610","0.0-6.0-0.91","ADKI","1","m","rechts","22","","fixation","","","",""
"747","img/90_300.png","70","image-keyboard-response","189","167368","0.0-6.0-1.91","ADKI","1","m","rechts","22","","","self","f","90","true"
"null","<div style=""font-size:60px;"">+</div>","null","html-keyboard-response","190","167673","0.0-6.0-0.92","ADKI","1","m","rechts","22","","fixation","","","",""
"926","img/150_60.png","70","image-keyboard-response","191","168606","0.0-6.0-1.92","ADKI","1","m","rechts","22","","","self","f","150","true"
"null","<div style=""font-size:60px;"">+</div>","null","html-keyboard-response","192","168986","0.0-6.0-0.93","ADKI","1","m","rechts","22","","fixation","","","",""
"721","img/0_90.png","74","image-keyboard-response","193","169721","0.0-6.0-1.93","ADKI","1","m","rechts","22","","","self","j","0","true"
"null","<div style=""font-size:60px;"">+</div>","null","html-keyboard-response","194","170048","0.0-6.0-0.94","ADKI","1","m","rechts","22","","fixation","","","",""
"987","img/90_330.png","70","image-keyboard-response","195","171048","0.0-6.0-1.94","ADKI","1","m","rechts","22","","","self","f","90","true"
"null","<div style=""font-size:60px;"">+</div>","null","html-keyboard-response","196","171407","0.0-6.0-0.95","ADKI","1","m","rechts","22","","fixation","","","",""
"895","img/120_150.png","70","image-keyboard-response","197","172318","0.0-6.0-1.95","ADKI","1","m","rechts","22","","","self","f","120","true"
"null","<div style=""font-size:60px;"">+</div>","null","html-keyboard-response","198","172671","0.0-6.0-0.96","ADKI","1","m","rechts","22","","fixation","","","",""
"957","img/150_300.png","70","image-keyboard-response","199","173636","0.0-6.0-1.96","ADKI","1","m","rechts","22","","","self","j","150","false"
"null","<div style=""font-size:60px;"">+</div>","null","html-keyboard-response","200","174047","0.0-6.0-0.97","ADKI","1","m","rechts","22","","fixation","","","",""
"1161","img/90_120.png","70","image-keyboard-response","201","175223","0.0-6.0-1.97","ADKI","1","m","rechts","22","","","self","f","90","true"
"null","<div style=""font-size:60px;"">+</div>","null","html-keyboard-response","202","175688","0.0-6.0-0.98","ADKI","1","m","rechts","22","","fixation","","","",""
"658","img/0_270.png","70","image-keyboard-response","203","176355","0.0-6.0-1.98","ADKI","1","m","rechts","22","","","self","f","0","true"
"null","<div style=""font-size:60px;"">+</div>","null","html-keyboard-response","204","176721","0.0-6.0-0.99","ADKI","1","m","rechts","22","","fixation","","","",""
"914","img/30_270.png","70","image-keyboard-response","205","177649","0.0-6.0-1.99","ADKI","1","m","rechts","22","","","self","f","30","true"
"null","<div style=""font-size:60px;"">+</div>","null","html-keyboard-response","206","178158","0.0-6.0-0.100","ADKI","1","m","rechts","22","","fixation","","","",""
"920","img/90_60.png","74","image-keyboard-response","207","179091","0.0-6.0-1.100","ADKI","1","m","rechts","22","","","self","j","90","true"
"null","<div style=""font-size:60px;"">+</div>","null","html-keyboard-response","208","179602","0.0-6.0-0.101","ADKI","1","m","rechts","22","","fixation","","","",""
"738","img/0_300.png","70","image-keyboard-response","209","180354","0.0-6.0-1.101","ADKI","1","m","rechts","22","","","self","f","0","true"
"null","<div style=""font-size:60px;"">+</div>","null","html-keyboard-response","210","180805","0.0-6.0-0.102","ADKI","1","m","rechts","22","","fixation","","","",""
"694","img/0_330.png","70","image-keyboard-response","211","181510","0.0-6.0-1.102","ADKI","1","m","rechts","22","","","self","f","0","true"
"null","<div style=""font-size:60px;"">+</div>","null","html-keyboard-response","212","181821","0.0-6.0-0.103","ADKI","1","m","rechts","22","","fixation","","","",""
"701","img/0_60.png","74","image-keyboard-response","213","182536","0.0-6.0-1.103","ADKI","1","m","rechts","22","","","self","j","0","true"
"null","<div style=""font-size:60px;"">+</div>","null","html-keyboard-response","214","182992","0.0-6.0-0.104","ADKI","1","m","rechts","22","","fixation","","","",""
"1138","img/L30_180.png","70","image-keyboard-response","215","184143","0.0-6.0-1.104","ADKI","1","m","rechts","22","","","self","f","30","true"
"null","<div style=""font-size:60px;"">+</div>","null","html-keyboard-response","216","184602","0.0-6.0-0.105","ADKI","1","m","rechts","22","","fixation","","","",""
"915","img/90_60.png","74","image-keyboard-response","217","185527","0.0-6.0-1.105","ADKI","1","m","rechts","22","","","self","j","90","true"
"null","<div style=""font-size:60px;"">+</div>","null","html-keyboard-response","218","186039","0.0-6.0-0.106","ADKI","1","m","rechts","22","","fixation","","","",""
"883","img/90_180.png","74","image-keyboard-response","219","186933","0.0-6.0-1.106","ADKI","1","m","rechts","22","","","self","j","90","true"
"null","<div style=""font-size:60px;"">+</div>","null","html-keyboard-response","220","187384","0.0-6.0-0.107","ADKI","1","m","rechts","22","","fixation","","","",""
"821","img/120_30.png","74","image-keyboard-response","221","188215","0.0-6.0-1.107","ADKI","1","m","rechts","22","","","self","j","120","true"
"null","<div style=""font-size:60px;"">+</div>","null","html-keyboard-response","222","188726","0.0-6.0-0.108","ADKI","1","m","rechts","22","","fixation","","","",""
"862","img/90_330.png","70","image-keyboard-response","223","189600","0.0-6.0-1.108","ADKI","1","m","rechts","22","","","self","f","90","true"
"null","<div style=""font-size:60px;"">+</div>","null","html-keyboard-response","224","190009","0.0-6.0-0.109","ADKI","1","m","rechts","22","","fixation","","","",""
"876","img/150_270.png","74","image-keyboard-response","225","190894","0.0-6.0-1.109","ADKI","1","m","rechts","22","","","self","j","150","true"
"null","<div style=""font-size:60px;"">+</div>","null","html-keyboard-response","226","191370","0.0-6.0-0.110","ADKI","1","m","rechts","22","","fixation","","","",""
"662","img/0_120.png","74","image-keyboard-response","227","192043","0.0-6.0-1.110","ADKI","1","m","rechts","22","","","self","j","0","true"
"null","<div style=""font-size:60px;"">+</div>","null","html-keyboard-response","228","192416","0.0-6.0-0.111","ADKI","1","m","rechts","22","","fixation","","","",""
"784","img/90_30.png","74","image-keyboard-response","229","193212","0.0-6.0-1.111","ADKI","1","m","rechts","22","","","self","j","90","true"
"null","<div style=""font-size:60px;"">+</div>","null","html-keyboard-response","230","193619","0.0-6.0-0.112","ADKI","1","m","rechts","22","","fixation","","","",""
"749","img/0_150.png","74","image-keyboard-response","231","194381","0.0-6.0-1.112","ADKI","1","m","rechts","22","","","self","j","0","true"
"null","<div style=""font-size:60px;"">+</div>","null","html-keyboard-response","232","194806","0.0-6.0-0.113","ADKI","1","m","rechts","22","","fixation","","","",""
"1139","img/60_90.png","74","image-keyboard-response","233","195957","0.0-6.0-1.113","ADKI","1","m","rechts","22","","","self","j","60","true"
"null","<div style=""font-size:60px;"">+</div>","null","html-keyboard-response","234","196416","0.0-6.0-0.114","ADKI","1","m","rechts","22","","fixation","","","",""
"983","img/150_180.png","74","image-keyboard-response","235","197407","0.0-6.0-1.114","ADKI","1","m","rechts","22","","","self","j","150","true"
"null","<div style=""font-size:60px;"">+</div>","null","html-keyboard-response","236","197713","0.0-6.0-0.115","ADKI","1","m","rechts","22","","fixation","","","",""
"1295","img/150_60.png","70","image-keyboard-response","237","199017","0.0-6.0-1.115","ADKI","1","m","rechts","22","","","self","f","150","true"
"null","<div style=""font-size:60px;"">+</div>","null","html-keyboard-response","238","199478","0.0-6.0-0.116","ADKI","1","m","rechts","22","","fixation","","","",""
"1350","img/60_270.png","70","image-keyboard-response","239","200838","0.0-6.0-1.116","ADKI","1","m","rechts","22","","","self","f","60","true"
"null","<div style=""font-size:60px;"">+</div>","null","html-keyboard-response","240","201260","0.0-6.0-0.117","ADKI","1","m","rechts","22","","fixation","","","",""
"803","img/120_210.png","74","image-keyboard-response","241","202074","0.0-6.0-1.117","ADKI","1","m","rechts","22","","","self","j","120","true"
"null","<div style=""font-size:60px;"">+</div>","null","html-keyboard-response","242","202448","0.0-6.0-0.118","ADKI","1","m","rechts","22","","fixation","","","",""
"921","img/30_90.png","74","image-keyboard-response","243","203380","0.0-6.0-1.118","ADKI","1","m","rechts","22","","","self","j","30","true"
"null","<div style=""font-size:60px;"">+</div>","null","html-keyboard-response","244","203901","0.0-6.0-0.119","ADKI","1","m","rechts","22","","fixation","","","",""
"807","img/120_180.png","74","image-keyboard-response","245","204721","0.0-6.0-1.119","ADKI","1","m","rechts","22","","","self","j","120","true"
"null","<div style=""font-size:60px;"">+</div>","null","html-keyboard-response","246","205199","0.0-6.0-0.120","ADKI","1","m","rechts","22","","fixation","","","",""
"833","img/60_330.png","70","image-keyboard-response","247","206044","0.0-6.0-1.120","ADKI","1","m","rechts","22","","","self","f","60","true"
"null","<div style=""font-size:60px;"">+</div>","null","html-keyboard-response","248","206401","0.0-6.0-0.121","ADKI","1","m","rechts","22","","fixation","","","",""
"805","img/30_270.png","70","image-keyboard-response","249","207216","0.0-6.0-1.121","ADKI","1","m","rechts","22","","","self","f","30","true"
"null","<div style=""font-size:60px;"">+</div>","null","html-keyboard-response","250","207526","0.0-6.0-0.122","ADKI","1","m","rechts","22","","fixation","","","",""
"996","img/150_120.png","70","image-keyboard-response","251","208532","0.0-6.0-1.122","ADKI","1","m","rechts","22","","","self","f","150","true"
"null","<div style=""font-size:60px;"">+</div>","null","html-keyboard-response","252","208853","0.0-6.0-0.123","ADKI","1","m","rechts","22","","fixation","","","",""
"965","img/90_300.png","70","image-keyboard-response","253","209827","0.0-6.0-1.123","ADKI","1","m","rechts","22","","","self","f","90","true"
"null","<div style=""font-size:60px;"">+</div>","null","html-keyboard-response","254","210294","0.0-6.0-0.124","ADKI","1","m","rechts","22","","fixation","","","",""
"890","img/120_90.png","70","image-keyboard-response","255","211198","0.0-6.0-1.124","ADKI","1","m","rechts","22","","","self","f","120","true"
"null","<div style=""font-size:60px;"">+</div>","null","html-keyboard-response","256","211714","0.0-6.0-0.125","ADKI","1","m","rechts","22","","fixation","","","",""
"979","img/90_150.png","70","image-keyboard-response","257","212708","0.0-6.0-1.125","ADKI","1","m","rechts","22","","","self","f","90","true"
"null","<div style=""font-size:60px;"">+</div>","null","html-keyboard-response","258","213012","0.0-6.0-0.126","ADKI","1","m","rechts","22","","fixation","","","",""
"934","img/90_120.png","70","image-keyboard-response","259","213956","0.0-6.0-1.126","ADKI","1","m","rechts","22","","","self","f","90","true"
"null","<div style=""font-size:60px;"">+</div>","null","html-keyboard-response","260","214470","0.0-6.0-0.127","ADKI","1","m","rechts","22","","fixation","","","",""
"1441","img/30_120.png","74","image-keyboard-response","261","215925","0.0-6.0-1.127","ADKI","1","m","rechts","22","","","self","j","30","true"
"null","<div style=""font-size:60px;"">+</div>","null","html-keyboard-response","262","216435","0.0-6.0-0.128","ADKI","1","m","rechts","22","","fixation","","","",""
"706","img/0_60.png","74","image-keyboard-response","263","217151","0.0-6.0-1.128","ADKI","1","m","rechts","22","","","self","j","0","true"
"null","<div style=""font-size:60px;"">+</div>","null","html-keyboard-response","264","217561","0.0-6.0-0.129","ADKI","1","m","rechts","22","","fixation","","","",""
"919","img/90_210.png","74","image-keyboard-response","265","218489","0.0-6.0-1.129","ADKI","1","m","rechts","22","","","self","j","90","true"
"null","<div style=""font-size:60px;"">+</div>","null","html-keyboard-response","266","218857","0.0-6.0-0.130","ADKI","1","m","rechts","22","","fixation","","","",""
"1115","img/60_180.png","74","image-keyboard-response","267","219986","0.0-6.0-1.130","ADKI","1","m","rechts","22","","","self","j","60","true"
"null","<div style=""font-size:60px;"">+</div>","null","html-keyboard-response","268","220294","0.0-6.0-0.131","ADKI","1","m","rechts","22","","fixation","","","",""
"1186","img/120_330.png","70","image-keyboard-response","269","221493","0.0-6.0-1.131","ADKI","1","m","rechts","22","","","self","f","120","true"
"null","<div style=""font-size:60px;"">+</div>","null","html-keyboard-response","270","221903","0.0-6.0-0.132","ADKI","1","m","rechts","22","","fixation","","","",""
"767","img/30_60.png","74","image-keyboard-response","271","222683","0.0-6.0-1.132","ADKI","1","m","rechts","22","","","self","j","30","true"
"null","<div style=""font-size:60px;"">+</div>","null","html-keyboard-response","272","223138","0.0-6.0-0.133","ADKI","1","m","rechts","22","","fixation","","","",""
"1484","img/150_300.png","74","image-keyboard-response","273","224632","0.0-6.0-1.133","ADKI","1","m","rechts","22","","","self","j","150","true"
"null","<div style=""font-size:60px;"">+</div>","null","html-keyboard-response","274","225061","0.0-6.0-0.134","ADKI","1","m","rechts","22","","fixation","","","",""
"755","img/0_330.png","70","image-keyboard-response","275","225825","0.0-6.0-1.134","ADKI","1","m","rechts","22","","","self","f","0","true"
"null","<div style=""font-size:60px;"">+</div>","null","html-keyboard-response","276","226139","0.0-6.0-0.135","ADKI","1","m","rechts","22","","fixation","","","",""
"774","img/60_210.png","74","image-keyboard-response","277","226927","0.0-6.0-1.135","ADKI","1","m","rechts","22","","","self","j","60","true"
"null","<div style=""font-size:60px;"">+</div>","null","html-keyboard-response","278","227234","0.0-6.0-0.136","ADKI","1","m","rechts","22","","fixation","","","",""
"1380","img/30_180.png","74","image-keyboard-response","279","228626","0.0-6.0-1.136","ADKI","1","m","rechts","22","","","self","j","30","true"
"null","<div style=""font-size:60px;"">+</div>","null","html-keyboard-response","280","229138","0.0-6.0-0.137","ADKI","1","m","rechts","22","","fixation","","","",""
"792","img/L90_180.png","70","image-keyboard-response","281","229943","0.0-6.0-1.137","ADKI","1","m","rechts","22","","","self","f","90","true"
"null","<div style=""font-size:60px;"">+</div>","null","html-keyboard-response","282","230342","0.0-6.0-0.138","ADKI","1","m","rechts","22","","fixation","","","",""
"982","img/L150_180.png","70","image-keyboard-response","283","231338","0.0-6.0-1.138","ADKI","1","m","rechts","22","","","self","f","150","true"
"null","<div style=""font-size:60px;"">+</div>","null","html-keyboard-response","284","231749","0.0-6.0-0.139","ADKI","1","m","rechts","22","","fixation","","","",""
"939","img/150_240.png","74","image-keyboard-response","285","232697","0.0-6.0-1.139","ADKI","1","m","rechts","22","","","self","j","150","true"
"null","<div style=""font-size:60px;"">+</div>","null","html-keyboard-response","286","232999","0.0-6.0-0.140","ADKI","1","m","rechts","22","","fixation","","","",""
"1061","img/120_270.png","74","image-keyboard-response","287","234070","0.0-6.0-1.140","ADKI","1","m","rechts","22","","","self","j","120","true"
"null","<div style=""font-size:60px;"">+</div>","null","html-keyboard-response","288","234451","0.0-6.0-0.141","ADKI","1","m","rechts","22","","fixation","","","",""
"689","img/0_270.png","70","image-keyboard-response","289","235151","0.0-6.0-1.141","ADKI","1","m","rechts","22","","","self","f","0","true"
"null","<div style=""font-size:60px;"">+</div>","null","html-keyboard-response","290","235671","0.0-6.0-0.142","ADKI","1","m","rechts","22","","fixation","","","",""
"947","img/60_150.png","70","image-keyboard-response","291","236627","0.0-6.0-1.142","ADKI","1","m","rechts","22","","","self","f","60","true"
"null","<div style=""font-size:60px;"">+</div>","null","html-keyboard-response","292","236983","0.0-6.0-0.143","ADKI","1","m","rechts","22","","fixation","","","",""
"968","img/60_30.png","74","image-keyboard-response","293","237965","0.0-6.0-1.143","ADKI","1","m","rechts","22","","","self","j","60","true"
"null","<div style=""font-size:60px;"">+</div>","null","html-keyboard-response","294","238329","0.0-6.0-0.144","ADKI","1","m","rechts","22","","fixation","","","",""
"829","img/90_240.png","74","image-keyboard-response","295","239168","0.0-6.0-1.144","ADKI","1","m","rechts","22","","","self","j","90","true"
"null","<div style=""font-size:60px;"">+</div>","null","html-keyboard-response","296","239641","0.0-6.0-0.145","ADKI","1","m","rechts","22","","fixation","","","",""
"667","img/0_210.png","70","image-keyboard-response","297","240316","0.0-6.0-1.145","ADKI","1","m","rechts","22","","","self","f","0","true"
"null","<div style=""font-size:60px;"">+</div>","null","html-keyboard-response","298","240827","0.0-6.0-0.146","ADKI","1","m","rechts","22","","fixation","","","",""
"1039","img/L120_180.png","70","image-keyboard-response","299","241879","0.0-6.0-1.146","ADKI","1","m","rechts","22","","","self","f","120","true"
"null","<div style=""font-size:60px;"">+</div>","null","html-keyboard-response","300","242295","0.0-6.0-0.147","ADKI","1","m","rechts","22","","fixation","","","",""
"1303","img/30_300.png","70","image-keyboard-response","301","243613","0.0-6.0-1.147","ADKI","1","m","rechts","22","","","self","f","30","true"
"null","<div style=""font-size:60px;"">+</div>","null","html-keyboard-response","302","243922","0.0-6.0-0.148","ADKI","1","m","rechts","22","","fixation","","","",""
"936","img/150_90.png","70","image-keyboard-response","303","244872","0.0-6.0-1.148","ADKI","1","m","rechts","22","","","self","f","150","true"
"null","<div style=""font-size:60px;"">+</div>","null","html-keyboard-response","304","245299","0.0-6.0-0.149","ADKI","1","m","rechts","22","","fixation","","","",""
"682","img/0_240.png","70","image-keyboard-response","305","245998","0.0-6.0-1.149","ADKI","1","m","rechts","22","","","self","f","0","true"
"null","<div style=""font-size:60px;"">+</div>","null","html-keyboard-response","306","246501","0.0-6.0-0.150","ADKI","1","m","rechts","22","","fixation","","","",""
"677","img/0_90.png","74","image-keyboard-response","307","247190","0.0-6.0-1.150","ADKI","1","m","rechts","22","","","self","j","0","true"
"null","<div style=""font-size:60px;"">+</div>","null","html-keyboard-response","308","247610","0.0-6.0-0.151","ADKI","1","m","rechts","22","","fixation","","","",""
"859","img/120_150.png","70","image-keyboard-response","309","248481","0.0-6.0-1.151","ADKI","1","m","rechts","22","","","self","f","120","true"
"null","<div style=""font-size:60px;"">+</div>","null","html-keyboard-response","310","248797","0.0-6.0-0.152","ADKI","1","m","rechts","22","","fixation","","","",""
"754","img/0_300.png","70","image-keyboard-response","311","249563","0.0-6.0-1.152","ADKI","1","m","rechts","22","","","self","f","0","true"
"null","<div style=""font-size:60px;"">+</div>","null","html-keyboard-response","312","249875","0.0-6.0-0.153","ADKI","1","m","rechts","22","","fixation","","","",""
"1292","img/30_240.png","70","image-keyboard-response","313","251182","0.0-6.0-1.153","ADKI","1","m","rechts","22","","","self","f","30","true"
"null","<div style=""font-size:60px;"">+</div>","null","html-keyboard-response","314","251693","0.0-6.0-0.154","ADKI","1","m","rechts","22","","fixation","","","",""
"612","img/0_30.png","74","image-keyboard-response","315","252318","0.0-6.0-1.154","ADKI","1","m","rechts","22","","","self","j","0","true"
"null","<div style=""font-size:60px;"">+</div>","null","html-keyboard-response","316","252770","0.0-6.0-0.155","ADKI","1","m","rechts","22","","fixation","","","",""
"717","img/L60_180.png","70","image-keyboard-response","317","253501","0.0-6.0-1.155","ADKI","1","m","rechts","22","","","self","f","60","true"
"null","<div style=""font-size:60px;"">+</div>","null","html-keyboard-response","318","253879","0.0-6.0-0.156","ADKI","1","m","rechts","22","","fixation","","","",""
"966","img/150_60.png","70","image-keyboard-response","319","254851","0.0-6.0-1.156","ADKI","1","m","rechts","22","","","self","f","150","true"
"null","<div style=""font-size:60px;"">+</div>","null","html-keyboard-response","320","255379","0.0-6.0-0.157","ADKI","1","m","rechts","22","","fixation","","","",""
"1137","img/150_270.png","74","image-keyboard-response","321","256528","0.0-6.0-1.157","ADKI","1","m","rechts","22","","","self","j","150","true"
"null","<div style=""font-size:60px;"">+</div>","null","html-keyboard-response","322","256831","0.0-6.0-0.158","ADKI","1","m","rechts","22","","fixation","","","",""
"885","img/150_240.png","74","image-keyboard-response","323","257719","0.0-6.0-1.158","ADKI","1","m","rechts","22","","","self","j","150","true"
"null","<div style=""font-size:60px;"">+</div>","null","html-keyboard-response","324","258081","0.0-6.0-0.159","ADKI","1","m","rechts","22","","fixation","","","",""
"974","img/60_90.png","74","image-keyboard-response","325","259069","0.0-6.0-1.159","ADKI","1","m","rechts","22","","","self","j","60","true"
"null","<div style=""font-size:60px;"">+</div>","null","html-keyboard-response","326","259582","0.0-6.0-0.160","ADKI","1","m","rechts","22","","fixation","","","",""
"836","img/120_180.png","74","image-keyboard-response","327","260431","0.0-6.0-1.160","ADKI","1","m","rechts","22","","","self","j","120","true"
"null","<div style=""font-size:60px;"">+</div>","null","html-keyboard-response","328","260861","0.0-6.0-0.161","ADKI","1","m","rechts","22","","fixation","","","",""
"632","img/0_60.png","74","image-keyboard-response","329","261501","0.0-6.0-1.161","ADKI","1","m","rechts","22","","","self","j","0","true"
"null","<div style=""font-size:60px;"">+</div>","null","html-keyboard-response","330","261924","0.0-6.0-0.162","ADKI","1","m","rechts","22","","fixation","","","",""
"667","img/0_210.png","70","image-keyboard-response","331","262602","0.0-6.0-1.162","ADKI","1","m","rechts","22","","","self","f","0","true"
"null","<div style=""font-size:60px;"">+</div>","null","html-keyboard-response","332","262908","0.0-6.0-0.163","ADKI","1","m","rechts","22","","fixation","","","",""
"898","img/60_270.png","70","image-keyboard-response","333","263822","0.0-6.0-1.163","ADKI","1","m","rechts","22","","","self","f","60","true"
"null","<div style=""font-size:60px;"">+</div>","null","html-keyboard-response","334","264237","0.0-6.0-0.164","ADKI","1","m","rechts","22","","fixation","","","",""
"602","img/0_30.png","74","image-keyboard-response","335","264848","0.0-6.0-1.164","ADKI","1","m","rechts","22","","","self","j","0","true"
"null","<div style=""font-size:60px;"">+</div>","null","html-keyboard-response","336","265223","0.0-6.0-0.165","ADKI","1","m","rechts","22","","fixation","","","",""
"898","img/90_120.png","70","image-keyboard-response","337","266135","0.0-6.0-1.165","ADKI","1","m","rechts","22","","","self","f","90","true"
"null","<div style=""font-size:60px;"">+</div>","null","html-keyboard-response","338","266660","0.0-6.0-0.166","ADKI","1","m","rechts","22","","fixation","","","",""
"1036","img/90_60.png","74","image-keyboard-response","339","267710","0.0-6.0-1.166","ADKI","1","m","rechts","22","","","self","j","90","true"
"null","<div style=""font-size:60px;"">+</div>","null","html-keyboard-response","340","268020","0.0-6.0-0.167","ADKI","1","m","rechts","22","","fixation","","","",""
"649","img/0_300.png","70","image-keyboard-response","341","268680","0.0-6.0-1.167","ADKI","1","m","rechts","22","","","self","f","0","true"
"null","<div style=""font-size:60px;"">+</div>","null","html-keyboard-response","342","268989","0.0-6.0-0.168","ADKI","1","m","rechts","22","","fixation","","","",""
"846","img/L90_180.png","70","image-keyboard-response","343","269844","0.0-6.0-1.168","ADKI","1","m","rechts","22","","","self","f","90","true"
"null","<div style=""font-size:60px;"">+</div>","null","html-keyboard-response","344","270163","0.0-6.0-0.169","ADKI","1","m","rechts","22","","fixation","","","",""
"823","img/60_210.png","74","image-keyboard-response","345","270995","0.0-6.0-1.169","ADKI","1","m","rechts","22","","","self","j","60","true"
"null","<div style=""font-size:60px;"">+</div>","null","html-keyboard-response","346","271427","0.0-6.0-0.170","ADKI","1","m","rechts","22","","fixation","","","",""
"867","img/150_180.png","74","image-keyboard-response","347","272308","0.0-6.0-1.170","ADKI","1","m","rechts","22","","","self","j","150","true"
"null","<div style=""font-size:60px;"">+</div>","null","html-keyboard-response","348","272725","0.0-6.0-0.171","ADKI","1","m","rechts","22","","fixation","","","",""
"680","img/L60_180.png","70","image-keyboard-response","349","273414","0.0-6.0-1.171","ADKI","1","m","rechts","22","","","self","f","60","true"
"null","<div style=""font-size:60px;"">+</div>","null","html-keyboard-response","350","273881","0.0-6.0-0.172","ADKI","1","m","rechts","22","","fixation","","","",""
"815","img/90_240.png","74","image-keyboard-response","351","274706","0.0-6.0-1.172","ADKI","1","m","rechts","22","","","self","j","90","true"
"null","<div style=""font-size:60px;"">+</div>","null","html-keyboard-response","352","275022","0.0-6.0-0.173","ADKI","1","m","rechts","22","","fixation","","","",""
"753","img/120_210.png","74","image-keyboard-response","353","275788","0.0-6.0-1.173","ADKI","1","m","rechts","22","","","self","j","120","true"
"null","<div style=""font-size:60px;"">+</div>","null","html-keyboard-response","354","276255","0.0-6.0-0.174","ADKI","1","m","rechts","22","","fixation","","","",""
"778","img/L30_180.png","70","image-keyboard-response","355","277047","0.0-6.0-1.174","ADKI","1","m","rechts","22","","","self","f","30","true"
"null","<div style=""font-size:60px;"">+</div>","null","html-keyboard-response","356","277364","0.0-6.0-0.175","ADKI","1","m","rechts","22","","fixation","","","",""
"1495","img/120_330.png","70","image-keyboard-response","357","278870","0.0-6.0-1.175","ADKI","1","m","rechts","22","","","self","f","120","true"
"null","<div style=""font-size:60px;"">+</div>","null","html-keyboard-response","358","279333","0.0-6.0-0.176","ADKI","1","m","rechts","22","","fixation","","","",""
"680","img/0_270.png","70","image-keyboard-response","359","280028","0.0-6.0-1.176","ADKI","1","m","rechts","22","","","self","f","0","true"
"null","<div style=""font-size:60px;"">+</div>","null","html-keyboard-response","360","280485","0.0-6.0-0.177","ADKI","1","m","rechts","22","","fixation","","","",""
"842","img/150_120.png","70","image-keyboard-response","361","281332","0.0-6.0-1.177","ADKI","1","m","rechts","22","","","self","f","150","true"
"null","<div style=""font-size:60px;"">+</div>","null","html-keyboard-response","362","281852","0.0-6.0-0.178","ADKI","1","m","rechts","22","","fixation","","","",""
"636","img/0_120.png","74","image-keyboard-response","363","282493","0.0-6.0-1.178","ADKI","1","m","rechts","22","","","self","j","0","true"
"null","<div style=""font-size:60px;"">+</div>","null","html-keyboard-response","364","282957","0.0-6.0-0.179","ADKI","1","m","rechts","22","","fixation","","","",""
"683","img/90_150.png","70","image-keyboard-response","365","283650","0.0-6.0-1.179","ADKI","1","m","rechts","22","","","self","f","90","true"
"null","<div style=""font-size:60px;"">+</div>","null","html-keyboard-response","366","284113","0.0-6.0-0.180","ADKI","1","m","rechts","22","","fixation","","","",""
"856","img/30_300.png","70","image-keyboard-response","367","284977","0.0-6.0-1.180","ADKI","1","m","rechts","22","","","self","f","30","true"
"null","<div style=""font-size:60px;"">+</div>","null","html-keyboard-response","368","285349","0.0-6.0-0.181","ADKI","1","m","rechts","22","","fixation","","","",""
"710","img/0_150.png","74","image-keyboard-response","369","286070","0.0-6.0-1.181","ADKI","1","m","rechts","22","","","self","j","0","true"
"null","<div style=""font-size:60px;"">+</div>","null","html-keyboard-response","370","286437","0.0-6.0-0.182","ADKI","1","m","rechts","22","","fixation","","","",""
"971","img/L150_180.png","70","image-keyboard-response","371","287420","0.0-6.0-1.182","ADKI","1","m","rechts","22","","","self","f","150","true"
"null","<div style=""font-size:60px;"">+</div>","null","html-keyboard-response","372","287788","0.0-6.0-0.183","ADKI","1","m","rechts","22","","fixation","","","",""
"877","img/90_210.png","74","image-keyboard-response","373","288680","0.0-6.0-1.183","ADKI","1","m","rechts","22","","","self","j","90","true"
"null","<div style=""font-size:60px;"">+</div>","null","html-keyboard-response","374","289117","0.0-6.0-0.184","ADKI","1","m","rechts","22","","fixation","","","",""
"847","img/60_180.png","74","image-keyboard-response","375","289973","0.0-6.0-1.184","ADKI","1","m","rechts","22","","","self","j","60","true"
"null","<div style=""font-size:60px;"">+</div>","null","html-keyboard-response","376","290438","0.0-6.0-0.185","ADKI","1","m","rechts","22","","fixation","","","",""
"1309","img/150_300.png","74","image-keyboard-response","377","291764","0.0-6.0-1.185","ADKI","1","m","rechts","22","","","self","j","150","true"
"null","<div style=""font-size:60px;"">+</div>","null","html-keyboard-response","378","292229","0.0-6.0-0.186","ADKI","1","m","rechts","22","","fixation","","","",""
"737","img/0_240.png","70","image-keyboard-response","379","292977","0.0-6.0-1.186","ADKI","1","m","rechts","22","","","self","f","0","true"
"null","<div style=""font-size:60px;"">+</div>","null","html-keyboard-response","380","293295","0.0-6.0-0.187","ADKI","1","m","rechts","22","","fixation","","","",""
"1275","img/120_90.png","70","image-keyboard-response","381","294587","0.0-6.0-1.187","ADKI","1","m","rechts","22","","","self","f","120","true"
"null","<div style=""font-size:60px;"">+</div>","null","html-keyboard-response","382","295102","0.0-6.0-0.188","ADKI","1","m","rechts","22","","fixation","","","",""
"1105","img/30_240.png","70","image-keyboard-response","383","296217","0.0-6.0-1.188","ADKI","1","m","rechts","22","","","self","f","30","true"
"null","<div style=""font-size:60px;"">+</div>","null","html-keyboard-response","384","296645","0.0-6.0-0.189","ADKI","1","m","rechts","22","","fixation","","","",""
"1281","img/90_300.png","70","image-keyboard-response","385","297939","0.0-6.0-1.189","ADKI","1","m","rechts","22","","","self","f","90","true"
"null","<div style=""font-size:60px;"">+</div>","null","html-keyboard-response","386","298298","0.0-6.0-0.190","ADKI","1","m","rechts","22","","fixation","","","",""
"886","img/30_120.png","74","image-keyboard-response","387","299199","0.0-6.0-1.190","ADKI","1","m","rechts","22","","","self","j","30","true"
"null","<div style=""font-size:60px;"">+</div>","null","html-keyboard-response","388","299556","0.0-6.0-0.191","ADKI","1","m","rechts","22","","fixation","","","",""
"968","img/120_270.png","74","image-keyboard-response","389","300537","0.0-6.0-1.191","ADKI","1","m","rechts","22","","","self","j","120","true"
"null","<div style=""font-size:60px;"">+</div>","null","html-keyboard-response","390","300892","0.0-6.0-0.192","ADKI","1","m","rechts","22","","fixation","","","",""
"941","img/90_330.png","70","image-keyboard-response","391","301840","0.0-6.0-1.192","ADKI","1","m","rechts","22","","","self","f","90","true"
"null","<div style=""font-size:60px;"">+</div>","null","html-keyboard-response","392","302268","0.0-6.0-0.193","ADKI","1","m","rechts","22","","fixation","","","",""
"1001","img/L120_180.png","70","image-keyboard-response","393","303282","0.0-6.0-1.193","ADKI","1","m","rechts","22","","","self","f","120","true"
"null","<div style=""font-size:60px;"">+</div>","null","html-keyboard-response","394","303689","0.0-6.0-0.194","ADKI","1","m","rechts","22","","fixation","","","",""
"910","img/60_30.png","74","image-keyboard-response","395","304610","0.0-6.0-1.194","ADKI","1","m","rechts","22","","","self","j","60","true"
"null","<div style=""font-size:60px;"">+</div>","null","html-keyboard-response","396","304935","0.0-6.0-0.195","ADKI","1","m","rechts","22","","fixation","","","",""
"628","img/90_30.png","74","image-keyboard-response","397","305578","0.0-6.0-1.195","ADKI","1","m","rechts","22","","","self","j","90","true"
"null","<div style=""font-size:60px;"">+</div>","null","html-keyboard-response","398","305888","0.0-6.0-0.196","ADKI","1","m","rechts","22","","fixation","","","",""
"810","img/120_150.png","70","image-keyboard-response","399","306713","0.0-6.0-1.196","ADKI","1","m","rechts","22","","","self","f","120","true"
"null","<div style=""font-size:60px;"">+</div>","null","html-keyboard-response","400","307030","0.0-6.0-0.197","ADKI","1","m","rechts","22","","fixation","","","",""
"1212","img/60_150.png","70","image-keyboard-response","401","308255","0.0-6.0-1.197","ADKI","1","m","rechts","22","","","self","f","60","true"
"null","<div style=""font-size:60px;"">+</div>","null","html-keyboard-response","402","308764","0.0-6.0-0.198","ADKI","1","m","rechts","22","","fixation","","","",""
"1073","img/120_30.png","74","image-keyboard-response","403","309851","0.0-6.0-1.198","ADKI","1","m","rechts","22","","","self","j","120","true"
"null","<div style=""font-size:60px;"">+</div>","null","html-keyboard-response","404","310154","0.0-6.0-0.199","ADKI","1","m","rechts","22","","fixation","","","",""
"629","img/0_330.png","70","image-keyboard-response","405","310799","0.0-6.0-1.199","ADKI","1","m","rechts","22","","","self","f","0","true"
"null","<div style=""font-size:60px;"">+</div>","null","html-keyboard-response","406","311171","0.0-6.0-0.200","ADKI","1","m","rechts","22","","fixation","","","",""
"918","img/30_270.png","70","image-keyboard-response","407","312103","0.0-6.0-1.200","ADKI","1","m","rechts","22","","","self","f","30","true"
"null","<div style=""font-size:60px;"">+</div>","null","html-keyboard-response","408","312483","0.0-6.0-0.201","ADKI","1","m","rechts","22","","fixation","","","",""
"686","img/60_330.png","70","image-keyboard-response","409","313184","0.0-6.0-1.201","ADKI","1","m","rechts","22","","","self","f","60","true"
"null","<div style=""font-size:60px;"">+</div>","null","html-keyboard-response","410","313654","0.0-6.0-0.202","ADKI","1","m","rechts","22","","fixation","","","",""
"895","img/90_180.png","74","image-keyboard-response","411","314566","0.0-6.0-1.202","ADKI","1","m","rechts","22","","","self","j","90","true"
"null","<div style=""font-size:60px;"">+</div>","null","html-keyboard-response","412","315016","0.0-6.0-0.203","ADKI","1","m","rechts","22","","fixation","","","",""
"718","img/0_90.png","74","image-keyboard-response","413","315748","0.0-6.0-1.203","ADKI","1","m","rechts","22","","","self","j","0","true"
"null","<div style=""font-size:60px;"">+</div>","null","html-keyboard-response","414","316266","0.0-6.0-0.204","ADKI","1","m","rechts","22","","fixation","","","",""
"760","img/30_90.png","74","image-keyboard-response","415","317039","0.0-6.0-1.204","ADKI","1","m","rechts","22","","","self","j","30","true"
"null","<div style=""font-size:60px;"">+</div>","null","html-keyboard-response","416","317563","0.0-6.0-0.205","ADKI","1","m","rechts","22","","fixation","","","",""
"658","img/30_60.png","74","image-keyboard-response","417","318234","0.0-6.0-1.205","ADKI","1","m","rechts","22","","","self","j","30","true"
"null","<div style=""font-size:60px;"">+</div>","null","html-keyboard-response","418","318546","0.0-6.0-0.206","ADKI","1","m","rechts","22","","fixation","","","",""
"854","img/150_90.png","70","image-keyboard-response","419","319415","0.0-6.0-1.206","ADKI","1","m","rechts","22","","","self","f","150","true"
"null","<div style=""font-size:60px;"">+</div>","null","html-keyboard-response","420","319780","0.0-6.0-0.207","ADKI","1","m","rechts","22","","fixation","","","",""
"1115","img/30_180.png","74","image-keyboard-response","421","320912","0.0-6.0-1.207","ADKI","1","m","rechts","22","","","self","j","30","true"
"9001","<p>Du hast in 96% der Versuche korrekt entschieden.</p><p>Deine durchschnittliche Reaktionszeit war  914ms.</p><p>Dr&uuml;cke eine beliebige Taste, um die Session zu beenden. Vielen Dank!</p>","32","html-keyboard-response","422","329926","0.0-7.0","ADKI","1","m","rechts","22","","","","","",""
