"rt","stimulus","key_press","trial_type","trial_index","time_elapsed","internal_node_id","subject","session","sex","handedness","age","responses","test_part","condition","correct_response","angle","correct"
"2336","<p>Mental Rotation Experiment.</p> <p>Dr&uuml;cke eine beliebige Taste, um anzufangen.</p>","13","html-keyboard-response","0","2371","0.0-0.0","ADKI","2","m","rechts","22","","","","","",""
"7996","","","survey-text","1","10367","0.0-1.0","ADKI","2","m","rechts","22","{""Q0"":""ADKI""}","","","","",""
"3605","","","survey-text","2","13972","0.0-2.0","ADKI","2","m","rechts","22","{""Q0"":""2""}","","","","",""
"2219","","","survey-multi-choice","3","16211","0.0-3.0","ADKI","2","m","rechts","22","{""Q0"":""m"",""Q1"":""rechts""}","","","","",""
"7067","","","survey-text","4","23281","0.0-4.0","ADKI","2","m","rechts","22","{""Q0"":""22""}","","","","",""
"11176","<p> Stell dir vor, dass du vor einem runden Tisch stehst, auf dem sich ein blauer Ball am Tischrand befindet. Entlang des Tischrands ist jeweils ein verschieden langer Pfeil. Nun bewegst du dich entlang dieses Pfeils bis an seine Spitze. Wenn du am Ende des Pfeils angekommen bist, schau zur Tischmitte. </p> <img src='img/90_180.png'></img> <br> <p>Entscheide dann, ob der Ball von deiner neuen (vorgestellten) Position links oder rechts von dir liegt.</p> <p>Dr&uuml;cke die <strong>'f'</strong>-Taste f&uuml;r links, die <strong>'j'</strong>-Taste f&uuml;r rechts.</p> <br><p> Das Bild wird jeweils 1 Sekunde lang pr&auml;sentiert. Du hast 3 Sekunden Zeit eine Entscheidung zu treffen.</p>","74","html-keyboard-response","5","34467","0.0-5.0","ADKI","2","m","rechts","22","","","","","",""
"null","<div style=""font-size:60px;"">+</div>","null","html-keyboard-response","6","35885","0.0-6.0-0.0","ADKI","2","m","rechts","22","","fixation","","","",""
"1622","img/120_30.png","74","image-keyboard-response","7","37527","0.0-6.0-1.0","ADKI","2","m","rechts","22","","","self","j","120","true"
"null","<div style=""font-size:60px;"">+</div>","null","html-keyboard-response","8","37851","0.0-6.0-0.1","ADKI","2","m","rechts","22","","fixation","","","",""
"1295","img/90_240.png","74","image-keyboard-response","9","39164","0.0-6.0-1.1","ADKI","2","m","rechts","22","","","self","j","90","true"
"null","<div style=""font-size:60px;"">+</div>","null","html-keyboard-response","10","39587","0.0-6.0-0.2","ADKI","2","m","rechts","22","","fixation","","","",""
"908","img/60_270.png","70","image-keyboard-response","11","40514","0.0-6.0-1.2","ADKI","2","m","rechts","22","","","self","f","60","true"
"null","<div style=""font-size:60px;"">+</div>","null","html-keyboard-response","12","41025","0.0-6.0-0.3","ADKI","2","m","rechts","22","","fixation","","","",""
"704","img/0_150.png","74","image-keyboard-response","13","41749","0.0-6.0-1.3","ADKI","2","m","rechts","22","","","self","j","0","true"
"null","<div style=""font-size:60px;"">+</div>","null","html-keyboard-response","14","42212","0.0-6.0-0.4","ADKI","2","m","rechts","22","","fixation","","","",""
"951","img/150_300.png","74","image-keyboard-response","15","43180","0.0-6.0-1.4","ADKI","2","m","rechts","22","","","self","j","150","true"
"null","<div style=""font-size:60px;"">+</div>","null","html-keyboard-response","16","43495","0.0-6.0-0.5","ADKI","2","m","rechts","22","","fixation","","","",""
"936","img/120_180.png","74","image-keyboard-response","17","44450","0.0-6.0-1.5","ADKI","2","m","rechts","22","","","self","j","120","true"
"null","<div style=""font-size:60px;"">+</div>","null","html-keyboard-response","18","44853","0.0-6.0-0.6","ADKI","2","m","rechts","22","","fixation","","","",""
"1065","img/90_300.png","70","image-keyboard-response","19","45937","0.0-6.0-1.6","ADKI","2","m","rechts","22","","","self","f","90","true"
"null","<div style=""font-size:60px;"">+</div>","null","html-keyboard-response","20","46244","0.0-6.0-0.7","ADKI","2","m","rechts","22","","fixation","","","",""
"690","img/0_240.png","70","image-keyboard-response","21","46950","0.0-6.0-1.7","ADKI","2","m","rechts","22","","","self","f","0","true"
"null","<div style=""font-size:60px;"">+</div>","null","html-keyboard-response","22","47462","0.0-6.0-0.8","ADKI","2","m","rechts","22","","fixation","","","",""
"943","img/90_150.png","70","image-keyboard-response","23","48423","0.0-6.0-1.8","ADKI","2","m","rechts","22","","","self","f","90","true"
"null","<div style=""font-size:60px;"">+</div>","null","html-keyboard-response","24","48933","0.0-6.0-0.9","ADKI","2","m","rechts","22","","fixation","","","",""
"799","img/120_150.png","70","image-keyboard-response","25","49751","0.0-6.0-1.9","ADKI","2","m","rechts","22","","","self","f","120","true"
"null","<div style=""font-size:60px;"">+</div>","null","html-keyboard-response","26","50184","0.0-6.0-0.10","ADKI","2","m","rechts","22","","fixation","","","",""
"672","img/L60_180.png","70","image-keyboard-response","27","50874","0.0-6.0-1.10","ADKI","2","m","rechts","22","","","self","f","60","true"
"null","<div style=""font-size:60px;"">+</div>","null","html-keyboard-response","28","51354","0.0-6.0-0.11","ADKI","2","m","rechts","22","","fixation","","","",""
"738","img/30_90.png","74","image-keyboard-response","29","52102","0.0-6.0-1.11","ADKI","2","m","rechts","22","","","self","j","30","true"
"null","<div style=""font-size:60px;"">+</div>","null","html-keyboard-response","30","52574","0.0-6.0-0.12","ADKI","2","m","rechts","22","","fixation","","","",""
"680","img/30_270.png","70","image-keyboard-response","31","53272","0.0-6.0-1.12","ADKI","2","m","rechts","22","","","self","f","30","true"
"null","<div style=""font-size:60px;"">+</div>","null","html-keyboard-response","32","53635","0.0-6.0-0.13","ADKI","2","m","rechts","22","","fixation","","","",""
"616","img/0_270.png","70","image-keyboard-response","33","54273","0.0-6.0-1.13","ADKI","2","m","rechts","22","","","self","f","0","true"
"null","<div style=""font-size:60px;"">+</div>","null","html-keyboard-response","34","54604","0.0-6.0-0.14","ADKI","2","m","rechts","22","","fixation","","","",""
"729","img/0_210.png","70","image-keyboard-response","35","55353","0.0-6.0-1.14","ADKI","2","m","rechts","22","","","self","f","0","true"
"null","<div style=""font-size:60px;"">+</div>","null","html-keyboard-response","36","55870","0.0-6.0-0.15","ADKI","2","m","rechts","22","","fixation","","","",""
"698","img/60_330.png","70","image-keyboard-response","37","56589","0.0-6.0-1.15","ADKI","2","m","rechts","22","","","self","f","60","true"
"null","<div style=""font-size:60px;"">+</div>","null","html-keyboard-response","38","57042","0.0-6.0-0.16","ADKI","2","m","rechts","22","","fixation","","","",""
"766","img/120_330.png","70","image-keyboard-response","39","57829","0.0-6.0-1.16","ADKI","2","m","rechts","22","","","self","f","120","true"
"null","<div style=""font-size:60px;"">+</div>","null","html-keyboard-response","40","58245","0.0-6.0-0.17","ADKI","2","m","rechts","22","","fixation","","","",""
"790","img/90_210.png","74","image-keyboard-response","41","59054","0.0-6.0-1.17","ADKI","2","m","rechts","22","","","self","j","90","true"
"null","<div style=""font-size:60px;"">+</div>","null","html-keyboard-response","42","59459","0.0-6.0-0.18","ADKI","2","m","rechts","22","","fixation","","","",""
"787","img/30_180.png","74","image-keyboard-response","43","60262","0.0-6.0-1.18","ADKI","2","m","rechts","22","","","self","j","30","true"
"null","<div style=""font-size:60px;"">+</div>","null","html-keyboard-response","44","60625","0.0-6.0-0.19","ADKI","2","m","rechts","22","","fixation","","","",""
"786","img/150_270.png","74","image-keyboard-response","45","61428","0.0-6.0-1.19","ADKI","2","m","rechts","22","","","self","j","150","true"
"null","<div style=""font-size:60px;"">+</div>","null","html-keyboard-response","46","61890","0.0-6.0-0.20","ADKI","2","m","rechts","22","","fixation","","","",""
"827","img/150_120.png","70","image-keyboard-response","47","62734","0.0-6.0-1.20","ADKI","2","m","rechts","22","","","self","f","150","true"
"null","<div style=""font-size:60px;"">+</div>","null","html-keyboard-response","48","63140","0.0-6.0-0.21","ADKI","2","m","rechts","22","","fixation","","","",""
"655","img/0_30.png","74","image-keyboard-response","49","63813","0.0-6.0-1.21","ADKI","2","m","rechts","22","","","self","j","0","true"
"null","<div style=""font-size:60px;"">+</div>","null","html-keyboard-response","50","64318","0.0-6.0-0.22","ADKI","2","m","rechts","22","","fixation","","","",""
"880","img/120_270.png","74","image-keyboard-response","51","65210","0.0-6.0-1.22","ADKI","2","m","rechts","22","","","self","j","120","true"
"null","<div style=""font-size:60px;"">+</div>","null","html-keyboard-response","52","65725","0.0-6.0-0.23","ADKI","2","m","rechts","22","","fixation","","","",""
"680","img/0_300.png","70","image-keyboard-response","53","66423","0.0-6.0-1.23","ADKI","2","m","rechts","22","","","self","f","0","true"
"null","<div style=""font-size:60px;"">+</div>","null","html-keyboard-response","54","66803","0.0-6.0-0.24","ADKI","2","m","rechts","22","","fixation","","","",""
"717","img/30_60.png","74","image-keyboard-response","55","67539","0.0-6.0-1.24","ADKI","2","m","rechts","22","","","self","j","30","true"
"null","<div style=""font-size:60px;"">+</div>","null","html-keyboard-response","56","67851","0.0-6.0-0.25","ADKI","2","m","rechts","22","","fixation","","","",""
"840","img/90_120.png","70","image-keyboard-response","57","68708","0.0-6.0-1.25","ADKI","2","m","rechts","22","","","self","f","90","true"
"null","<div style=""font-size:60px;"">+</div>","null","html-keyboard-response","58","69116","0.0-6.0-0.26","ADKI","2","m","rechts","22","","fixation","","","",""
"845","img/150_180.png","74","image-keyboard-response","59","69980","0.0-6.0-1.26","ADKI","2","m","rechts","22","","","self","j","150","true"
"null","<div style=""font-size:60px;"">+</div>","null","html-keyboard-response","60","70445","0.0-6.0-0.27","ADKI","2","m","rechts","22","","fixation","","","",""
"832","img/60_90.png","74","image-keyboard-response","61","71294","0.0-6.0-1.27","ADKI","2","m","rechts","22","","","self","j","60","true"
"null","<div style=""font-size:60px;"">+</div>","null","html-keyboard-response","62","71725","0.0-6.0-0.28","ADKI","2","m","rechts","22","","fixation","","","",""
"790","img/60_150.png","70","image-keyboard-response","63","72534","0.0-6.0-1.28","ADKI","2","m","rechts","22","","","self","f","60","true"
"null","<div style=""font-size:60px;"">+</div>","null","html-keyboard-response","64","72835","0.0-6.0-0.29","ADKI","2","m","rechts","22","","fixation","","","",""
"872","img/150_90.png","70","image-keyboard-response","65","73725","0.0-6.0-1.29","ADKI","2","m","rechts","22","","","self","f","150","true"
"null","<div style=""font-size:60px;"">+</div>","null","html-keyboard-response","66","74149","0.0-6.0-0.30","ADKI","2","m","rechts","22","","fixation","","","",""
"638","img/0_90.png","74","image-keyboard-response","67","74807","0.0-6.0-1.30","ADKI","2","m","rechts","22","","","self","j","0","true"
"null","<div style=""font-size:60px;"">+</div>","null","html-keyboard-response","68","75166","0.0-6.0-0.31","ADKI","2","m","rechts","22","","fixation","","","",""
"713","img/90_30.png","74","image-keyboard-response","69","75896","0.0-6.0-1.31","ADKI","2","m","rechts","22","","","self","j","90","true"
"null","<div style=""font-size:60px;"">+</div>","null","html-keyboard-response","70","76305","0.0-6.0-0.32","ADKI","2","m","rechts","22","","fixation","","","",""
"720","img/60_180.png","74","image-keyboard-response","71","77045","0.0-6.0-1.32","ADKI","2","m","rechts","22","","","self","j","60","true"
"null","<div style=""font-size:60px;"">+</div>","null","html-keyboard-response","72","77523","0.0-6.0-0.33","ADKI","2","m","rechts","22","","fixation","","","",""
"932","img/120_90.png","70","image-keyboard-response","73","78472","0.0-6.0-1.33","ADKI","2","m","rechts","22","","","self","f","120","true"
"null","<div style=""font-size:60px;"">+</div>","null","html-keyboard-response","74","78946","0.0-6.0-0.34","ADKI","2","m","rechts","22","","fixation","","","",""
"913","img/150_60.png","70","image-keyboard-response","75","79879","0.0-6.0-1.34","ADKI","2","m","rechts","22","","","self","f","150","true"
"null","<div style=""font-size:60px;"">+</div>","null","html-keyboard-response","76","80383","0.0-6.0-0.35","ADKI","2","m","rechts","22","","fixation","","","",""
"904","img/30_240.png","70","image-keyboard-response","77","81297","0.0-6.0-1.35","ADKI","2","m","rechts","22","","","self","f","30","true"
"null","<div style=""font-size:60px;"">+</div>","null","html-keyboard-response","78","81820","0.0-6.0-0.36","ADKI","2","m","rechts","22","","fixation","","","",""
"673","img/60_30.png","74","image-keyboard-response","79","82513","0.0-6.0-1.36","ADKI","2","m","rechts","22","","","self","j","60","true"
"null","<div style=""font-size:60px;"">+</div>","null","html-keyboard-response","80","82868","0.0-6.0-0.37","ADKI","2","m","rechts","22","","fixation","","","",""
"658","img/0_60.png","74","image-keyboard-response","81","83547","0.0-6.0-1.37","ADKI","2","m","rechts","22","","","self","j","0","true"
"null","<div style=""font-size:60px;"">+</div>","null","html-keyboard-response","82","84009","0.0-6.0-0.38","ADKI","2","m","rechts","22","","fixation","","","",""
"656","img/L90_180.png","70","image-keyboard-response","83","84683","0.0-6.0-1.38","ADKI","2","m","rechts","22","","","self","f","90","true"
"null","<div style=""font-size:60px;"">+</div>","null","html-keyboard-response","84","85055","0.0-6.0-0.39","ADKI","2","m","rechts","22","","fixation","","","",""
"1139","img/90_60.png","74","image-keyboard-response","85","86214","0.0-6.0-1.39","ADKI","2","m","rechts","22","","","self","j","90","true"
"null","<div style=""font-size:60px;"">+</div>","null","html-keyboard-response","86","86573","0.0-6.0-0.40","ADKI","2","m","rechts","22","","fixation","","","",""
"795","img/L150_180.png","70","image-keyboard-response","87","87383","0.0-6.0-1.40","ADKI","2","m","rechts","22","","","self","f","150","true"
"null","<div style=""font-size:60px;"">+</div>","null","html-keyboard-response","88","87852","0.0-6.0-0.41","ADKI","2","m","rechts","22","","fixation","","","",""
"1087","img/0_120.png","74","image-keyboard-response","89","88955","0.0-6.0-1.41","ADKI","2","m","rechts","22","","","self","j","0","true"
"null","<div style=""font-size:60px;"">+</div>","null","html-keyboard-response","90","89306","0.0-6.0-0.42","ADKI","2","m","rechts","22","","fixation","","","",""
"775","img/L120_180.png","70","image-keyboard-response","91","90095","0.0-6.0-1.42","ADKI","2","m","rechts","22","","","self","f","120","true"
"null","<div style=""font-size:60px;"">+</div>","null","html-keyboard-response","92","90463","0.0-6.0-0.43","ADKI","2","m","rechts","22","","fixation","","","",""
"664","img/90_180.png","74","image-keyboard-response","93","91141","0.0-6.0-1.43","ADKI","2","m","rechts","22","","","self","j","90","true"
"null","<div style=""font-size:60px;"">+</div>","null","html-keyboard-response","94","91621","0.0-6.0-0.44","ADKI","2","m","rechts","22","","fixation","","","",""
"772","img/120_210.png","74","image-keyboard-response","95","92411","0.0-6.0-1.44","ADKI","2","m","rechts","22","","","self","j","120","true"
"null","<div style=""font-size:60px;"">+</div>","null","html-keyboard-response","96","92824","0.0-6.0-0.45","ADKI","2","m","rechts","22","","fixation","","","",""
"725","img/150_240.png","74","image-keyboard-response","97","93569","0.0-6.0-1.45","ADKI","2","m","rechts","22","","","self","j","150","true"
"null","<div style=""font-size:60px;"">+</div>","null","html-keyboard-response","98","94075","0.0-6.0-0.46","ADKI","2","m","rechts","22","","fixation","","","",""
"942","img/L30_180.png","70","image-keyboard-response","99","95033","0.0-6.0-1.46","ADKI","2","m","rechts","22","","","self","f","30","true"
"null","<div style=""font-size:60px;"">+</div>","null","html-keyboard-response","100","95388","0.0-6.0-0.47","ADKI","2","m","rechts","22","","fixation","","","",""
"887","img/30_300.png","70","image-keyboard-response","101","96292","0.0-6.0-1.47","ADKI","2","m","rechts","22","","","self","f","30","true"
"null","<div style=""font-size:60px;"">+</div>","null","html-keyboard-response","102","96800","0.0-6.0-0.48","ADKI","2","m","rechts","22","","fixation","","","",""
"809","img/30_120.png","74","image-keyboard-response","103","97632","0.0-6.0-1.48","ADKI","2","m","rechts","22","","","self","j","30","true"
"null","<div style=""font-size:60px;"">+</div>","null","html-keyboard-response","104","98050","0.0-6.0-0.49","ADKI","2","m","rechts","22","","fixation","","","",""
"733","img/90_330.png","70","image-keyboard-response","105","98801","0.0-6.0-1.49","ADKI","2","m","rechts","22","","","self","f","90","true"
"null","<div style=""font-size:60px;"">+</div>","null","html-keyboard-response","106","99160","0.0-6.0-0.50","ADKI","2","m","rechts","22","","fixation","","","",""
"660","img/0_330.png","70","image-keyboard-response","107","99837","0.0-6.0-1.50","ADKI","2","m","rechts","22","","","self","f","0","true"
"null","<div style=""font-size:60px;"">+</div>","null","html-keyboard-response","108","100301","0.0-6.0-0.51","ADKI","2","m","rechts","22","","fixation","","","",""
"732","img/60_210.png","74","image-keyboard-response","109","101051","0.0-6.0-1.51","ADKI","2","m","rechts","22","","","self","j","60","true"
"null","<div style=""font-size:60px;"">+</div>","null","html-keyboard-response","110","101409","0.0-6.0-0.52","ADKI","2","m","rechts","22","","fixation","","","",""
"812","img/L90_180.png","70","image-keyboard-response","111","102232","0.0-6.0-1.52","ADKI","2","m","rechts","22","","","self","f","90","true"
"null","<div style=""font-size:60px;"">+</div>","null","html-keyboard-response","112","102535","0.0-6.0-0.53","ADKI","2","m","rechts","22","","fixation","","","",""
"943","img/120_330.png","70","image-keyboard-response","113","103493","0.0-6.0-1.53","ADKI","2","m","rechts","22","","","self","f","120","true"
"null","<div style=""font-size:60px;"">+</div>","null","html-keyboard-response","114","103895","0.0-6.0-0.54","ADKI","2","m","rechts","22","","fixation","","","",""
"837","img/30_60.png","74","image-keyboard-response","115","104742","0.0-6.0-1.54","ADKI","2","m","rechts","22","","","self","j","30","true"
"null","<div style=""font-size:60px;"">+</div>","null","html-keyboard-response","116","105208","0.0-6.0-0.55","ADKI","2","m","rechts","22","","fixation","","","",""
"815","img/120_90.png","70","image-keyboard-response","117","106033","0.0-6.0-1.55","ADKI","2","m","rechts","22","","","self","f","120","true"
"null","<div style=""font-size:60px;"">+</div>","null","html-keyboard-response","118","106349","0.0-6.0-0.56","ADKI","2","m","rechts","22","","fixation","","","",""
"771","img/L150_180.png","70","image-keyboard-response","119","107125","0.0-6.0-1.56","ADKI","2","m","rechts","22","","","self","f","150","true"
"null","<div style=""font-size:60px;"">+</div>","null","html-keyboard-response","120","107443","0.0-6.0-0.57","ADKI","2","m","rechts","22","","fixation","","","",""
"904","img/120_270.png","74","image-keyboard-response","121","108351","0.0-6.0-1.57","ADKI","2","m","rechts","22","","","self","j","120","true"
"null","<div style=""font-size:60px;"">+</div>","null","html-keyboard-response","122","108662","0.0-6.0-0.58","ADKI","2","m","rechts","22","","fixation","","","",""
"681","img/0_60.png","74","image-keyboard-response","123","109354","0.0-6.0-1.58","ADKI","2","m","rechts","22","","","self","j","0","true"
"null","<div style=""font-size:60px;"">+</div>","null","html-keyboard-response","124","109820","0.0-6.0-0.59","ADKI","2","m","rechts","22","","fixation","","","",""
"694","img/60_150.png","70","image-keyboard-response","125","110523","0.0-6.0-1.59","ADKI","2","m","rechts","22","","","self","f","60","true"
"null","<div style=""font-size:60px;"">+</div>","null","html-keyboard-response","126","110944","0.0-6.0-0.60","ADKI","2","m","rechts","22","","fixation","","","",""
"852","img/60_210.png","74","image-keyboard-response","127","111807","0.0-6.0-1.60","ADKI","2","m","rechts","22","","","self","j","60","true"
"null","<div style=""font-size:60px;"">+</div>","null","html-keyboard-response","128","112224","0.0-6.0-0.61","ADKI","2","m","rechts","22","","fixation","","","",""
"717","img/0_150.png","74","image-keyboard-response","129","112955","0.0-6.0-1.61","ADKI","2","m","rechts","22","","","self","j","0","true"
"null","<div style=""font-size:60px;"">+</div>","null","html-keyboard-response","130","113461","0.0-6.0-0.62","ADKI","2","m","rechts","22","","fixation","","","",""
"673","img/90_150.png","70","image-keyboard-response","131","114147","0.0-6.0-1.62","ADKI","2","m","rechts","22","","","self","f","90","true"
"null","<div style=""font-size:60px;"">+</div>","null","html-keyboard-response","132","114461","0.0-6.0-0.63","ADKI","2","m","rechts","22","","fixation","","","",""
"1048","img/90_60.png","74","image-keyboard-response","133","115519","0.0-6.0-1.63","ADKI","2","m","rechts","22","","","self","j","90","true"
"null","<div style=""font-size:60px;"">+</div>","null","html-keyboard-response","134","115931","0.0-6.0-0.64","ADKI","2","m","rechts","22","","fixation","","","",""
"926","img/150_60.png","70","image-keyboard-response","135","116868","0.0-6.0-1.64","ADKI","2","m","rechts","22","","","self","f","150","true"
"null","<div style=""font-size:60px;"">+</div>","null","html-keyboard-response","136","117195","0.0-6.0-0.65","ADKI","2","m","rechts","22","","fixation","","","",""
"654","img/0_120.png","74","image-keyboard-response","137","117859","0.0-6.0-1.65","ADKI","2","m","rechts","22","","","self","j","0","true"
"null","<div style=""font-size:60px;"">+</div>","null","html-keyboard-response","138","118273","0.0-6.0-0.66","ADKI","2","m","rechts","22","","fixation","","","",""
"682","img/150_120.png","70","image-keyboard-response","139","118968","0.0-6.0-1.66","ADKI","2","m","rechts","22","","","self","f","150","true"
"null","<div style=""font-size:60px;"">+</div>","null","html-keyboard-response","140","119478","0.0-6.0-0.67","ADKI","2","m","rechts","22","","fixation","","","",""
"1045","img/120_30.png","74","image-keyboard-response","141","120537","0.0-6.0-1.67","ADKI","2","m","rechts","22","","","self","j","120","true"
"null","<div style=""font-size:60px;"">+</div>","null","html-keyboard-response","142","120852","0.0-6.0-0.68","ADKI","2","m","rechts","22","","fixation","","","",""
"1429","img/30_240.png","70","image-keyboard-response","143","122292","0.0-6.0-1.68","ADKI","2","m","rechts","22","","","self","f","30","true"
"null","<div style=""font-size:60px;"">+</div>","null","html-keyboard-response","144","122649","0.0-6.0-0.69","ADKI","2","m","rechts","22","","fixation","","","",""
"935","img/30_180.png","74","image-keyboard-response","145","123597","0.0-6.0-1.69","ADKI","2","m","rechts","22","","","self","j","30","true"
"null","<div style=""font-size:60px;"">+</div>","null","html-keyboard-response","146","124025","0.0-6.0-0.70","ADKI","2","m","rechts","22","","fixation","","","",""
"1178","img/150_270.png","74","image-keyboard-response","147","125218","0.0-6.0-1.70","ADKI","2","m","rechts","22","","","self","j","150","true"
"null","<div style=""font-size:60px;"">+</div>","null","html-keyboard-response","148","125621","0.0-6.0-0.71","ADKI","2","m","rechts","22","","fixation","","","",""
"699","img/0_210.png","70","image-keyboard-response","149","126331","0.0-6.0-1.71","ADKI","2","m","rechts","22","","","self","f","0","true"
"null","<div style=""font-size:60px;"">+</div>","null","html-keyboard-response","150","126651","0.0-6.0-0.72","ADKI","2","m","rechts","22","","fixation","","","",""
"779","img/60_90.png","74","image-keyboard-response","151","127444","0.0-6.0-1.72","ADKI","2","m","rechts","22","","","self","j","60","true"
"null","<div style=""font-size:60px;"">+</div>","null","html-keyboard-response","152","127947","0.0-6.0-0.73","ADKI","2","m","rechts","22","","fixation","","","",""
"769","img/90_180.png","74","image-keyboard-response","153","128727","0.0-6.0-1.73","ADKI","2","m","rechts","22","","","self","j","90","true"
"null","<div style=""font-size:60px;"">+</div>","null","html-keyboard-response","154","129136","0.0-6.0-0.74","ADKI","2","m","rechts","22","","fixation","","","",""
"615","img/0_270.png","70","image-keyboard-response","155","129762","0.0-6.0-1.74","ADKI","2","m","rechts","22","","","self","f","0","true"
"null","<div style=""font-size:60px;"">+</div>","null","html-keyboard-response","156","130212","0.0-6.0-0.75","ADKI","2","m","rechts","22","","fixation","","","",""
"580","img/0_300.png","70","image-keyboard-response","157","130807","0.0-6.0-1.75","ADKI","2","m","rechts","22","","","self","f","0","true"
"null","<div style=""font-size:60px;"">+</div>","null","html-keyboard-response","158","131323","0.0-6.0-0.76","ADKI","2","m","rechts","22","","fixation","","","",""
"608","img/60_330.png","70","image-keyboard-response","159","131946","0.0-6.0-1.76","ADKI","2","m","rechts","22","","","self","f","60","true"
"null","<div style=""font-size:60px;"">+</div>","null","html-keyboard-response","160","132275","0.0-6.0-0.77","ADKI","2","m","rechts","22","","fixation","","","",""
"645","img/0_240.png","70","image-keyboard-response","161","132933","0.0-6.0-1.77","ADKI","2","m","rechts","22","","","self","f","0","true"
"null","<div style=""font-size:60px;"">+</div>","null","html-keyboard-response","162","133297","0.0-6.0-0.78","ADKI","2","m","rechts","22","","fixation","","","",""
"783","img/90_240.png","74","image-keyboard-response","163","134094","0.0-6.0-1.78","ADKI","2","m","rechts","22","","","self","j","90","true"
"null","<div style=""font-size:60px;"">+</div>","null","html-keyboard-response","164","134554","0.0-6.0-0.79","ADKI","2","m","rechts","22","","fixation","","","",""
"677","img/L60_180.png","70","image-keyboard-response","165","135249","0.0-6.0-1.79","ADKI","2","m","rechts","22","","","self","f","60","true"
"null","<div style=""font-size:60px;"">+</div>","null","html-keyboard-response","166","135773","0.0-6.0-0.80","ADKI","2","m","rechts","22","","fixation","","","",""
"567","img/120_180.png","74","image-keyboard-response","167","136354","0.0-6.0-1.80","ADKI","2","m","rechts","22","","","self","j","120","true"
"null","<div style=""font-size:60px;"">+</div>","null","html-keyboard-response","168","136759","0.0-6.0-0.81","ADKI","2","m","rechts","22","","fixation","","","",""
"1280","img/90_30.png","74","image-keyboard-response","169","138054","0.0-6.0-1.81","ADKI","2","m","rechts","22","","","self","j","90","true"
"null","<div style=""font-size:60px;"">+</div>","null","html-keyboard-response","170","138413","0.0-6.0-0.82","ADKI","2","m","rechts","22","","fixation","","","",""
"883","img/90_330.png","70","image-keyboard-response","171","139302","0.0-6.0-1.82","ADKI","2","m","rechts","22","","","self","f","90","true"
"null","<div style=""font-size:60px;"">+</div>","null","html-keyboard-response","172","139804","0.0-6.0-0.83","ADKI","2","m","rechts","22","","fixation","","","",""
"867","img/150_90.png","70","image-keyboard-response","173","140686","0.0-6.0-1.83","ADKI","2","m","rechts","22","","","self","f","150","true"
"null","<div style=""font-size:60px;"">+</div>","null","html-keyboard-response","174","141163","0.0-6.0-0.84","ADKI","2","m","rechts","22","","fixation","","","",""
"543","img/0_30.png","74","image-keyboard-response","175","141719","0.0-6.0-1.84","ADKI","2","m","rechts","22","","","self","j","0","true"
"null","<div style=""font-size:60px;"">+</div>","null","html-keyboard-response","176","142241","0.0-6.0-0.85","ADKI","2","m","rechts","22","","fixation","","","",""
"826","img/60_180.png","74","image-keyboard-response","177","143082","0.0-6.0-1.85","ADKI","2","m","rechts","22","","","self","j","60","true"
"null","<div style=""font-size:60px;"">+</div>","null","html-keyboard-response","178","143604","0.0-6.0-0.86","ADKI","2","m","rechts","22","","fixation","","","",""
"590","img/30_270.png","70","image-keyboard-response","179","144208","0.0-6.0-1.86","ADKI","2","m","rechts","22","","","self","f","30","true"
"null","<div style=""font-size:60px;"">+</div>","null","html-keyboard-response","180","144618","0.0-6.0-0.87","ADKI","2","m","rechts","22","","fixation","","","",""
"666","img/90_300.png","70","image-keyboard-response","181","145298","0.0-6.0-1.87","ADKI","2","m","rechts","22","","","self","f","90","true"
"null","<div style=""font-size:60px;"">+</div>","null","html-keyboard-response","182","145649","0.0-6.0-0.88","ADKI","2","m","rechts","22","","fixation","","","",""
"896","img/90_210.png","74","image-keyboard-response","183","146558","0.0-6.0-1.88","ADKI","2","m","rechts","22","","","self","j","90","true"
"null","<div style=""font-size:60px;"">+</div>","null","html-keyboard-response","184","147071","0.0-6.0-0.89","ADKI","2","m","rechts","22","","fixation","","","",""
"688","img/120_150.png","70","image-keyboard-response","185","147773","0.0-6.0-1.89","ADKI","2","m","rechts","22","","","self","f","120","true"
"null","<div style=""font-size:60px;"">+</div>","null","html-keyboard-response","186","148197","0.0-6.0-0.90","ADKI","2","m","rechts","22","","fixation","","","",""
"633","img/60_270.png","70","image-keyboard-response","187","148843","0.0-6.0-1.90","ADKI","2","m","rechts","22","","","self","f","60","true"
"null","<div style=""font-size:60px;"">+</div>","null","html-keyboard-response","188","149260","0.0-6.0-0.91","ADKI","2","m","rechts","22","","fixation","","","",""
"679","img/60_30.png","74","image-keyboard-response","189","149943","0.0-6.0-1.91","ADKI","2","m","rechts","22","","","self","j","60","true"
"null","<div style=""font-size:60px;"">+</div>","null","html-keyboard-response","190","150260","0.0-6.0-0.92","ADKI","2","m","rechts","22","","fixation","","","",""
"784","img/L30_180.png","70","image-keyboard-response","191","151060","0.0-6.0-1.92","ADKI","2","m","rechts","22","","","self","f","30","true"
"null","<div style=""font-size:60px;"">+</div>","null","html-keyboard-response","192","151370","0.0-6.0-0.93","ADKI","2","m","rechts","22","","fixation","","","",""
"778","img/30_300.png","70","image-keyboard-response","193","152162","0.0-6.0-1.93","ADKI","2","m","rechts","22","","","self","f","30","true"
"null","<div style=""font-size:60px;"">+</div>","null","html-keyboard-response","194","152574","0.0-6.0-0.94","ADKI","2","m","rechts","22","","fixation","","","",""
"724","img/120_210.png","74","image-keyboard-response","195","153310","0.0-6.0-1.94","ADKI","2","m","rechts","22","","","self","j","120","true"
"null","<div style=""font-size:60px;"">+</div>","null","html-keyboard-response","196","153621","0.0-6.0-0.95","ADKI","2","m","rechts","22","","fixation","","","",""
"732","img/90_120.png","70","image-keyboard-response","197","154366","0.0-6.0-1.95","ADKI","2","m","rechts","22","","","self","f","90","true"
"null","<div style=""font-size:60px;"">+</div>","null","html-keyboard-response","198","154822","0.0-6.0-0.96","ADKI","2","m","rechts","22","","fixation","","","",""
"1263","img/150_300.png","74","image-keyboard-response","199","156099","0.0-6.0-1.96","ADKI","2","m","rechts","22","","","self","j","150","true"
"null","<div style=""font-size:60px;"">+</div>","null","html-keyboard-response","200","156479","0.0-6.0-0.97","ADKI","2","m","rechts","22","","fixation","","","",""
"754","img/30_90.png","74","image-keyboard-response","201","157246","0.0-6.0-1.97","ADKI","2","m","rechts","22","","","self","j","30","true"
"null","<div style=""font-size:60px;"">+</div>","null","html-keyboard-response","202","157556","0.0-6.0-0.98","ADKI","2","m","rechts","22","","fixation","","","",""
"632","img/0_90.png","74","image-keyboard-response","203","158202","0.0-6.0-1.98","ADKI","2","m","rechts","22","","","self","j","0","true"
"null","<div style=""font-size:60px;"">+</div>","null","html-keyboard-response","204","158556","0.0-6.0-0.99","ADKI","2","m","rechts","22","","fixation","","","",""
"541","img/0_330.png","70","image-keyboard-response","205","159111","0.0-6.0-1.99","ADKI","2","m","rechts","22","","","self","f","0","true"
"null","<div style=""font-size:60px;"">+</div>","null","html-keyboard-response","206","159574","0.0-6.0-0.100","ADKI","2","m","rechts","22","","fixation","","","",""
"732","img/30_120.png","74","image-keyboard-response","207","160318","0.0-6.0-1.100","ADKI","2","m","rechts","22","","","self","j","30","true"
"null","<div style=""font-size:60px;"">+</div>","null","html-keyboard-response","208","160822","0.0-6.0-0.101","ADKI","2","m","rechts","22","","fixation","","","",""
"652","img/L120_180.png","70","image-keyboard-response","209","161487","0.0-6.0-1.101","ADKI","2","m","rechts","22","","","self","f","120","true"
"null","<div style=""font-size:60px;"">+</div>","null","html-keyboard-response","210","161916","0.0-6.0-0.102","ADKI","2","m","rechts","22","","fixation","","","",""
"683","img/150_180.png","74","image-keyboard-response","211","162612","0.0-6.0-1.102","ADKI","2","m","rechts","22","","","self","j","150","true"
"null","<div style=""font-size:60px;"">+</div>","null","html-keyboard-response","212","163072","0.0-6.0-0.103","ADKI","2","m","rechts","22","","fixation","","","",""
"675","img/150_240.png","74","image-keyboard-response","213","163760","0.0-6.0-1.103","ADKI","2","m","rechts","22","","","self","j","150","true"
"null","<div style=""font-size:60px;"">+</div>","null","html-keyboard-response","214","164237","0.0-6.0-0.104","ADKI","2","m","rechts","22","","fixation","","","",""
"730","img/90_210.png","74","image-keyboard-response","215","164976","0.0-6.0-1.104","ADKI","2","m","rechts","22","","","self","j","90","true"
"null","<div style=""font-size:60px;"">+</div>","null","html-keyboard-response","216","165346","0.0-6.0-0.105","ADKI","2","m","rechts","22","","fixation","","","",""
"663","img/60_180.png","74","image-keyboard-response","217","166021","0.0-6.0-1.105","ADKI","2","m","rechts","22","","","self","j","60","true"
"null","<div style=""font-size:60px;"">+</div>","null","html-keyboard-response","218","166532","0.0-6.0-0.106","ADKI","2","m","rechts","22","","fixation","","","",""
"779","img/150_90.png","70","image-keyboard-response","219","167316","0.0-6.0-1.106","ADKI","2","m","rechts","22","","","self","f","150","true"
"null","<div style=""font-size:60px;"">+</div>","null","html-keyboard-response","220","167846","0.0-6.0-0.107","ADKI","2","m","rechts","22","","fixation","","","",""
"827","img/90_150.png","70","image-keyboard-response","221","168687","0.0-6.0-1.107","ADKI","2","m","rechts","22","","","self","f","90","true"
"null","<div style=""font-size:60px;"">+</div>","null","html-keyboard-response","222","169206","0.0-6.0-0.108","ADKI","2","m","rechts","22","","fixation","","","",""
"709","img/90_330.png","70","image-keyboard-response","223","169925","0.0-6.0-1.108","ADKI","2","m","rechts","22","","","self","f","90","true"
"null","<div style=""font-size:60px;"">+</div>","null","html-keyboard-response","224","170350","0.0-6.0-0.109","ADKI","2","m","rechts","22","","fixation","","","",""
"984","img/90_240.png","74","image-keyboard-response","225","171342","0.0-6.0-1.109","ADKI","2","m","rechts","22","","","self","j","90","true"
"null","<div style=""font-size:60px;"">+</div>","null","html-keyboard-response","226","171851","0.0-6.0-0.110","ADKI","2","m","rechts","22","","fixation","","","",""
"672","img/L90_180.png","70","image-keyboard-response","227","172536","0.0-6.0-1.110","ADKI","2","m","rechts","22","","","self","f","90","true"
"null","<div style=""font-size:60px;"">+</div>","null","html-keyboard-response","228","172896","0.0-6.0-0.111","ADKI","2","m","rechts","22","","fixation","","","",""
"1052","img/90_60.png","74","image-keyboard-response","229","173963","0.0-6.0-1.111","ADKI","2","m","rechts","22","","","self","j","90","true"
"null","<div style=""font-size:60px;"">+</div>","null","html-keyboard-response","230","174288","0.0-6.0-0.112","ADKI","2","m","rechts","22","","fixation","","","",""
"800","img/120_90.png","70","image-keyboard-response","231","175102","0.0-6.0-1.112","ADKI","2","m","rechts","22","","","self","f","120","true"
"null","<div style=""font-size:60px;"">+</div>","null","html-keyboard-response","232","175631","0.0-6.0-0.113","ADKI","2","m","rechts","22","","fixation","","","",""
"918","img/30_180.png","74","image-keyboard-response","233","176562","0.0-6.0-1.113","ADKI","2","m","rechts","22","","","self","j","30","true"
"null","<div style=""font-size:60px;"">+</div>","null","html-keyboard-response","234","176943","0.0-6.0-0.114","ADKI","2","m","rechts","22","","fixation","","","",""
"589","img/0_270.png","70","image-keyboard-response","235","177553","0.0-6.0-1.114","ADKI","2","m","rechts","22","","","self","f","0","true"
"null","<div style=""font-size:60px;"">+</div>","null","html-keyboard-response","236","177881","0.0-6.0-0.115","ADKI","2","m","rechts","22","","fixation","","","",""
"766","img/150_240.png","74","image-keyboard-response","237","178656","0.0-6.0-1.115","ADKI","2","m","rechts","22","","","self","j","150","true"
"null","<div style=""font-size:60px;"">+</div>","null","html-keyboard-response","238","178960","0.0-6.0-0.116","ADKI","2","m","rechts","22","","fixation","","","",""
"605","img/0_120.png","74","image-keyboard-response","239","179578","0.0-6.0-1.116","ADKI","2","m","rechts","22","","","self","j","0","true"
"null","<div style=""font-size:60px;"">+</div>","null","html-keyboard-response","240","179991","0.0-6.0-0.117","ADKI","2","m","rechts","22","","fixation","","","",""
"667","img/120_210.png","74","image-keyboard-response","241","180669","0.0-6.0-1.117","ADKI","2","m","rechts","22","","","self","j","120","true"
"null","<div style=""font-size:60px;"">+</div>","null","html-keyboard-response","242","181195","0.0-6.0-0.118","ADKI","2","m","rechts","22","","fixation","","","",""
"699","img/90_180.png","74","image-keyboard-response","243","181907","0.0-6.0-1.118","ADKI","2","m","rechts","22","","","self","j","90","true"
"null","<div style=""font-size:60px;"">+</div>","null","html-keyboard-response","244","182413","0.0-6.0-0.119","ADKI","2","m","rechts","22","","fixation","","","",""
"743","img/L30_180.png","70","image-keyboard-response","245","183167","0.0-6.0-1.119","ADKI","2","m","rechts","22","","","self","f","30","true"
"null","<div style=""font-size:60px;"">+</div>","null","html-keyboard-response","246","183617","0.0-6.0-0.120","ADKI","2","m","rechts","22","","fixation","","","",""
"672","img/30_240.png","70","image-keyboard-response","247","184303","0.0-6.0-1.120","ADKI","2","m","rechts","22","","","self","f","30","true"
"null","<div style=""font-size:60px;"">+</div>","null","html-keyboard-response","248","184773","0.0-6.0-0.121","ADKI","2","m","rechts","22","","fixation","","","",""
"844","img/150_120.png","70","image-keyboard-response","249","185630","0.0-6.0-1.121","ADKI","2","m","rechts","22","","","self","f","150","true"
"null","<div style=""font-size:60px;"">+</div>","null","html-keyboard-response","250","186147","0.0-6.0-0.122","ADKI","2","m","rechts","22","","fixation","","","",""
"621","img/0_30.png","74","image-keyboard-response","251","186778","0.0-6.0-1.122","ADKI","2","m","rechts","22","","","self","j","0","true"
"null","<div style=""font-size:60px;"">+</div>","null","html-keyboard-response","252","187132","0.0-6.0-0.123","ADKI","2","m","rechts","22","","fixation","","","",""
"901","img/150_270.png","74","image-keyboard-response","253","188047","0.0-6.0-1.123","ADKI","2","m","rechts","22","","","self","j","150","true"
"null","<div style=""font-size:60px;"">+</div>","null","html-keyboard-response","254","188366","0.0-6.0-0.124","ADKI","2","m","rechts","22","","fixation","","","",""
"856","img/150_180.png","74","image-keyboard-response","255","189231","0.0-6.0-1.124","ADKI","2","m","rechts","22","","","self","j","150","true"
"null","<div style=""font-size:60px;"">+</div>","null","html-keyboard-response","256","189742","0.0-6.0-0.125","ADKI","2","m","rechts","22","","fixation","","","",""
"667","img/30_60.png","74","image-keyboard-response","257","190422","0.0-6.0-1.125","ADKI","2","m","rechts","22","","","self","j","30","true"
"null","<div style=""font-size:60px;"">+</div>","null","html-keyboard-response","258","190929","0.0-6.0-0.126","ADKI","2","m","rechts","22","","fixation","","","",""
"651","img/L60_180.png","70","image-keyboard-response","259","191593","0.0-6.0-1.126","ADKI","2","m","rechts","22","","","self","f","60","true"
"null","<div style=""font-size:60px;"">+</div>","null","html-keyboard-response","260","191898","0.0-6.0-0.127","ADKI","2","m","rechts","22","","fixation","","","",""
"750","img/60_330.png","70","image-keyboard-response","261","192661","0.0-6.0-1.127","ADKI","2","m","rechts","22","","","self","f","60","true"
"null","<div style=""font-size:60px;"">+</div>","null","html-keyboard-response","262","192993","0.0-6.0-0.128","ADKI","2","m","rechts","22","","fixation","","","",""
"771","img/L150_180.png","70","image-keyboard-response","263","193777","0.0-6.0-1.128","ADKI","2","m","rechts","22","","","self","f","150","true"
"null","<div style=""font-size:60px;"">+</div>","null","html-keyboard-response","264","194290","0.0-6.0-0.129","ADKI","2","m","rechts","22","","fixation","","","",""
"655","img/60_30.png","74","image-keyboard-response","265","194956","0.0-6.0-1.129","ADKI","2","m","rechts","22","","","self","j","60","true"
"null","<div style=""font-size:60px;"">+</div>","null","html-keyboard-response","266","195462","0.0-6.0-0.130","ADKI","2","m","rechts","22","","fixation","","","",""
"559","img/0_210.png","70","image-keyboard-response","267","196037","0.0-6.0-1.130","ADKI","2","m","rechts","22","","","self","f","0","true"
"null","<div style=""font-size:60px;"">+</div>","null","html-keyboard-response","268","196493","0.0-6.0-0.131","ADKI","2","m","rechts","22","","fixation","","","",""
"1064","img/120_270.png","74","image-keyboard-response","269","197566","0.0-6.0-1.131","ADKI","2","m","rechts","22","","","self","j","120","true"
"null","<div style=""font-size:60px;"">+</div>","null","html-keyboard-response","270","197994","0.0-6.0-0.132","ADKI","2","m","rechts","22","","fixation","","","",""
"791","img/90_120.png","70","image-keyboard-response","271","198794","0.0-6.0-1.132","ADKI","2","m","rechts","22","","","self","f","90","true"
"null","<div style=""font-size:60px;"">+</div>","null","html-keyboard-response","272","199104","0.0-6.0-0.133","ADKI","2","m","rechts","22","","fixation","","","",""
"565","img/0_240.png","70","image-keyboard-response","273","199682","0.0-6.0-1.133","ADKI","2","m","rechts","22","","","self","f","0","true"
"null","<div style=""font-size:60px;"">+</div>","null","html-keyboard-response","274","200136","0.0-6.0-0.134","ADKI","2","m","rechts","22","","fixation","","","",""
"578","img/90_30.png","74","image-keyboard-response","275","200727","0.0-6.0-1.134","ADKI","2","m","rechts","22","","","self","j","90","true"
"null","<div style=""font-size:60px;"">+</div>","null","html-keyboard-response","276","201089","0.0-6.0-0.135","ADKI","2","m","rechts","22","","fixation","","","",""
"649","img/120_150.png","70","image-keyboard-response","277","201751","0.0-6.0-1.135","ADKI","2","m","rechts","22","","","self","f","120","true"
"null","<div style=""font-size:60px;"">+</div>","null","html-keyboard-response","278","202059","0.0-6.0-0.136","ADKI","2","m","rechts","22","","fixation","","","",""
"975","img/60_270.png","70","image-keyboard-response","279","203046","0.0-6.0-1.136","ADKI","2","m","rechts","22","","","self","f","60","true"
"null","<div style=""font-size:60px;"">+</div>","null","html-keyboard-response","280","203526","0.0-6.0-0.137","ADKI","2","m","rechts","22","","fixation","","","",""
"586","img/0_300.png","70","image-keyboard-response","281","204125","0.0-6.0-1.137","ADKI","2","m","rechts","22","","","self","f","0","true"
"null","<div style=""font-size:60px;"">+</div>","null","html-keyboard-response","282","204652","0.0-6.0-0.138","ADKI","2","m","rechts","22","","fixation","","","",""
"837","img/L120_180.png","70","image-keyboard-response","283","205497","0.0-6.0-1.138","ADKI","2","m","rechts","22","","","self","f","120","true"
"null","<div style=""font-size:60px;"">+</div>","null","html-keyboard-response","284","205960","0.0-6.0-0.139","ADKI","2","m","rechts","22","","fixation","","","",""
"715","img/120_180.png","74","image-keyboard-response","285","206691","0.0-6.0-1.139","ADKI","2","m","rechts","22","","","self","j","120","true"
"null","<div style=""font-size:60px;"">+</div>","null","html-keyboard-response","286","207149","0.0-6.0-0.140","ADKI","2","m","rechts","22","","fixation","","","",""
"1028","img/150_60.png","70","image-keyboard-response","287","208188","0.0-6.0-1.140","ADKI","2","m","rechts","22","","","self","f","150","true"
"null","<div style=""font-size:60px;"">+</div>","null","html-keyboard-response","288","208664","0.0-6.0-0.141","ADKI","2","m","rechts","22","","fixation","","","",""
"1004","img/30_300.png","70","image-keyboard-response","289","209683","0.0-6.0-1.141","ADKI","2","m","rechts","22","","","self","f","30","true"
"null","<div style=""font-size:60px;"">+</div>","null","html-keyboard-response","290","210147","0.0-6.0-0.142","ADKI","2","m","rechts","22","","fixation","","","",""
"1988","img/60_90.png","70","image-keyboard-response","291","212141","0.0-6.0-1.142","ADKI","2","m","rechts","22","","","self","j","60","false"
"null","<div style=""font-size:60px;"">+</div>","null","html-keyboard-response","292","212652","0.0-6.0-0.143","ADKI","2","m","rechts","22","","fixation","","","",""
"918","img/90_300.png","70","image-keyboard-response","293","213587","0.0-6.0-1.143","ADKI","2","m","rechts","22","","","self","f","90","true"
"null","<div style=""font-size:60px;"">+</div>","null","html-keyboard-response","294","214039","0.0-6.0-0.144","ADKI","2","m","rechts","22","","fixation","","","",""
"671","img/0_150.png","74","image-keyboard-response","295","214723","0.0-6.0-1.144","ADKI","2","m","rechts","22","","","self","j","0","true"
"null","<div style=""font-size:60px;"">+</div>","null","html-keyboard-response","296","215242","0.0-6.0-0.145","ADKI","2","m","rechts","22","","fixation","","","",""
"570","img/0_90.png","74","image-keyboard-response","297","215825","0.0-6.0-1.145","ADKI","2","m","rechts","22","","","self","j","0","true"
"null","<div style=""font-size:60px;"">+</div>","null","html-keyboard-response","298","216305","0.0-6.0-0.146","ADKI","2","m","rechts","22","","fixation","","","",""
"565","img/0_330.png","70","image-keyboard-response","299","216883","0.0-6.0-1.146","ADKI","2","m","rechts","22","","","self","f","0","true"
"null","<div style=""font-size:60px;"">+</div>","null","html-keyboard-response","300","217242","0.0-6.0-0.147","ADKI","2","m","rechts","22","","fixation","","","",""
"741","img/120_330.png","70","image-keyboard-response","301","217996","0.0-6.0-1.147","ADKI","2","m","rechts","22","","","self","f","120","true"
"null","<div style=""font-size:60px;"">+</div>","null","html-keyboard-response","302","218461","0.0-6.0-0.148","ADKI","2","m","rechts","22","","fixation","","","",""
"894","img/60_150.png","70","image-keyboard-response","303","219370","0.0-6.0-1.148","ADKI","2","m","rechts","22","","","self","f","60","true"
"null","<div style=""font-size:60px;"">+</div>","null","html-keyboard-response","304","219682","0.0-6.0-0.149","ADKI","2","m","rechts","22","","fixation","","","",""
"879","img/60_210.png","74","image-keyboard-response","305","220574","0.0-6.0-1.149","ADKI","2","m","rechts","22","","","self","j","60","true"
"null","<div style=""font-size:60px;"">+</div>","null","html-keyboard-response","306","220994","0.0-6.0-0.150","ADKI","2","m","rechts","22","","fixation","","","",""
"990","img/30_120.png","74","image-keyboard-response","307","221998","0.0-6.0-1.150","ADKI","2","m","rechts","22","","","self","j","30","true"
"null","<div style=""font-size:60px;"">+</div>","null","html-keyboard-response","308","222401","0.0-6.0-0.151","ADKI","2","m","rechts","22","","fixation","","","",""
"725","img/30_90.png","74","image-keyboard-response","309","223138","0.0-6.0-1.151","ADKI","2","m","rechts","22","","","self","j","30","true"
"null","<div style=""font-size:60px;"">+</div>","null","html-keyboard-response","310","223652","0.0-6.0-0.152","ADKI","2","m","rechts","22","","fixation","","","",""
"1160","img/150_300.png","74","image-keyboard-response","311","224826","0.0-6.0-1.152","ADKI","2","m","rechts","22","","","self","j","150","true"
"null","<div style=""font-size:60px;"">+</div>","null","html-keyboard-response","312","225231","0.0-6.0-0.153","ADKI","2","m","rechts","22","","fixation","","","",""
"743","img/30_270.png","70","image-keyboard-response","313","225985","0.0-6.0-1.153","ADKI","2","m","rechts","22","","","self","f","30","true"
"null","<div style=""font-size:60px;"">+</div>","null","html-keyboard-response","314","226465","0.0-6.0-0.154","ADKI","2","m","rechts","22","","fixation","","","",""
"1171","img/120_30.png","74","image-keyboard-response","315","227651","0.0-6.0-1.154","ADKI","2","m","rechts","22","","","self","j","120","true"
"null","<div style=""font-size:60px;"">+</div>","null","html-keyboard-response","316","228011","0.0-6.0-0.155","ADKI","2","m","rechts","22","","fixation","","","",""
"649","img/0_60.png","74","image-keyboard-response","317","228678","0.0-6.0-1.155","ADKI","2","m","rechts","22","","","self","j","0","true"
"null","<div style=""font-size:60px;"">+</div>","null","html-keyboard-response","318","229182","0.0-6.0-0.156","ADKI","2","m","rechts","22","","fixation","","","",""
"1011","img/30_240.png","70","image-keyboard-response","319","230203","0.0-6.0-1.156","ADKI","2","m","rechts","22","","","self","f","30","true"
"null","<div style=""font-size:60px;"">+</div>","null","html-keyboard-response","320","230557","0.0-6.0-0.157","ADKI","2","m","rechts","22","","fixation","","","",""
"702","img/30_270.png","70","image-keyboard-response","321","231271","0.0-6.0-1.157","ADKI","2","m","rechts","22","","","self","f","30","true"
"null","<div style=""font-size:60px;"">+</div>","null","html-keyboard-response","322","231682","0.0-6.0-0.158","ADKI","2","m","rechts","22","","fixation","","","",""
"683","img/0_210.png","70","image-keyboard-response","323","232375","0.0-6.0-1.158","ADKI","2","m","rechts","22","","","self","f","0","true"
"null","<div style=""font-size:60px;"">+</div>","null","html-keyboard-response","324","232730","0.0-6.0-0.159","ADKI","2","m","rechts","22","","fixation","","","",""
"1043","img/150_60.png","70","image-keyboard-response","325","233781","0.0-6.0-1.159","ADKI","2","m","rechts","22","","","self","f","150","true"
"null","<div style=""font-size:60px;"">+</div>","null","html-keyboard-response","326","234106","0.0-6.0-0.160","ADKI","2","m","rechts","22","","fixation","","","",""
"1105","img/60_210.png","74","image-keyboard-response","327","235221","0.0-6.0-1.160","ADKI","2","m","rechts","22","","","self","j","60","true"
"null","<div style=""font-size:60px;"">+</div>","null","html-keyboard-response","328","235575","0.0-6.0-0.161","ADKI","2","m","rechts","22","","fixation","","","",""
"951","img/120_270.png","74","image-keyboard-response","329","236537","0.0-6.0-1.161","ADKI","2","m","rechts","22","","","self","j","120","true"
"null","<div style=""font-size:60px;"">+</div>","null","html-keyboard-response","330","237043","0.0-6.0-0.162","ADKI","2","m","rechts","22","","fixation","","","",""
"712","img/120_150.png","70","image-keyboard-response","331","237764","0.0-6.0-1.162","ADKI","2","m","rechts","22","","","self","f","120","true"
"null","<div style=""font-size:60px;"">+</div>","null","html-keyboard-response","332","238168","0.0-6.0-0.163","ADKI","2","m","rechts","22","","fixation","","","",""
"1288","img/60_30.png","74","image-keyboard-response","333","239472","0.0-6.0-1.163","ADKI","2","m","rechts","22","","","self","j","60","true"
"null","<div style=""font-size:60px;"">+</div>","null","html-keyboard-response","334","239840","0.0-6.0-0.164","ADKI","2","m","rechts","22","","fixation","","","",""
"715","img/150_120.png","70","image-keyboard-response","335","240565","0.0-6.0-1.164","ADKI","2","m","rechts","22","","","self","f","150","true"
"null","<div style=""font-size:60px;"">+</div>","null","html-keyboard-response","336","240887","0.0-6.0-0.165","ADKI","2","m","rechts","22","","fixation","","","",""
"805","img/L60_180.png","70","image-keyboard-response","337","241703","0.0-6.0-1.165","ADKI","2","m","rechts","22","","","self","f","60","true"
"null","<div style=""font-size:60px;"">+</div>","null","html-keyboard-response","338","242184","0.0-6.0-0.166","ADKI","2","m","rechts","22","","fixation","","","",""
"701","img/60_330.png","70","image-keyboard-response","339","242894","0.0-6.0-1.166","ADKI","2","m","rechts","22","","","self","f","60","true"
"null","<div style=""font-size:60px;"">+</div>","null","html-keyboard-response","340","243255","0.0-6.0-0.167","ADKI","2","m","rechts","22","","fixation","","","",""
"820","img/30_120.png","74","image-keyboard-response","341","244088","0.0-6.0-1.167","ADKI","2","m","rechts","22","","","self","j","30","true"
"null","<div style=""font-size:60px;"">+</div>","null","html-keyboard-response","342","244444","0.0-6.0-0.168","ADKI","2","m","rechts","22","","fixation","","","",""
"677","img/30_60.png","74","image-keyboard-response","343","245134","0.0-6.0-1.168","ADKI","2","m","rechts","22","","","self","j","30","true"
"null","<div style=""font-size:60px;"">+</div>","null","html-keyboard-response","344","245537","0.0-6.0-0.169","ADKI","2","m","rechts","22","","fixation","","","",""
"632","img/90_30.png","74","image-keyboard-response","345","246179","0.0-6.0-1.169","ADKI","2","m","rechts","22","","","self","j","90","true"
"null","<div style=""font-size:60px;"">+</div>","null","html-keyboard-response","346","246630","0.0-6.0-0.170","ADKI","2","m","rechts","22","","fixation","","","",""
"637","img/L120_180.png","70","image-keyboard-response","347","247281","0.0-6.0-1.170","ADKI","2","m","rechts","22","","","self","f","120","true"
"null","<div style=""font-size:60px;"">+</div>","null","html-keyboard-response","348","247693","0.0-6.0-0.171","ADKI","2","m","rechts","22","","fixation","","","",""
"962","img/90_300.png","70","image-keyboard-response","349","248665","0.0-6.0-1.171","ADKI","2","m","rechts","22","","","self","f","90","true"
"null","<div style=""font-size:60px;"">+</div>","null","html-keyboard-response","350","248993","0.0-6.0-0.172","ADKI","2","m","rechts","22","","fixation","","","",""
"853","img/30_300.png","70","image-keyboard-response","351","249856","0.0-6.0-1.172","ADKI","2","m","rechts","22","","","self","f","30","true"
"null","<div style=""font-size:60px;"">+</div>","null","html-keyboard-response","352","250275","0.0-6.0-0.173","ADKI","2","m","rechts","22","","fixation","","","",""
"852","img/30_180.png","74","image-keyboard-response","353","251140","0.0-6.0-1.173","ADKI","2","m","rechts","22","","","self","j","30","true"
"null","<div style=""font-size:60px;"">+</div>","null","html-keyboard-response","354","251600","0.0-6.0-0.174","ADKI","2","m","rechts","22","","fixation","","","",""
"573","img/0_240.png","70","image-keyboard-response","355","252188","0.0-6.0-1.174","ADKI","2","m","rechts","22","","","self","f","0","true"
"null","<div style=""font-size:60px;"">+</div>","null","html-keyboard-response","356","252695","0.0-6.0-0.175","ADKI","2","m","rechts","22","","fixation","","","",""
"502","img/0_30.png","74","image-keyboard-response","357","253210","0.0-6.0-1.175","ADKI","2","m","rechts","22","","","self","j","0","true"
"null","<div style=""font-size:60px;"">+</div>","null","html-keyboard-response","358","253631","0.0-6.0-0.176","ADKI","2","m","rechts","22","","fixation","","","",""
"1055","img/150_300.png","74","image-keyboard-response","359","254696","0.0-6.0-1.176","ADKI","2","m","rechts","22","","","self","j","150","true"
"null","<div style=""font-size:60px;"">+</div>","null","html-keyboard-response","360","255225","0.0-6.0-0.177","ADKI","2","m","rechts","22","","fixation","","","",""
"705","img/150_270.png","74","image-keyboard-response","361","255944","0.0-6.0-1.177","ADKI","2","m","rechts","22","","","self","j","150","true"
"null","<div style=""font-size:60px;"">+</div>","null","html-keyboard-response","362","256303","0.0-6.0-0.178","ADKI","2","m","rechts","22","","fixation","","","",""
"606","img/L90_180.png","70","image-keyboard-response","363","256924","0.0-6.0-1.178","ADKI","2","m","rechts","22","","","self","f","90","true"
"null","<div style=""font-size:60px;"">+</div>","null","html-keyboard-response","364","257350","0.0-6.0-0.179","ADKI","2","m","rechts","22","","fixation","","","",""
"768","img/60_270.png","70","image-keyboard-response","365","258127","0.0-6.0-1.179","ADKI","2","m","rechts","22","","","self","f","60","true"
"null","<div style=""font-size:60px;"">+</div>","null","html-keyboard-response","366","258444","0.0-6.0-0.180","ADKI","2","m","rechts","22","","fixation","","","",""
"1018","img/L30_180.png","70","image-keyboard-response","367","259478","0.0-6.0-1.180","ADKI","2","m","rechts","22","","","self","f","30","true"
"null","<div style=""font-size:60px;"">+</div>","null","html-keyboard-response","368","259930","0.0-6.0-0.181","ADKI","2","m","rechts","22","","fixation","","","",""
"648","img/60_90.png","74","image-keyboard-response","369","260589","0.0-6.0-1.181","ADKI","2","m","rechts","22","","","self","j","60","true"
"null","<div style=""font-size:60px;"">+</div>","null","html-keyboard-response","370","260993","0.0-6.0-0.182","ADKI","2","m","rechts","22","","fixation","","","",""
"821","img/150_240.png","74","image-keyboard-response","371","261829","0.0-6.0-1.182","ADKI","2","m","rechts","22","","","self","j","150","true"
"null","<div style=""font-size:60px;"">+</div>","null","html-keyboard-response","372","262197","0.0-6.0-0.183","ADKI","2","m","rechts","22","","fixation","","","",""
"710","img/90_240.png","74","image-keyboard-response","373","262918","0.0-6.0-1.183","ADKI","2","m","rechts","22","","","self","j","90","true"
"null","<div style=""font-size:60px;"">+</div>","null","html-keyboard-response","374","263320","0.0-6.0-0.184","ADKI","2","m","rechts","22","","fixation","","","",""
"643","img/90_60.png","74","image-keyboard-response","375","263976","0.0-6.0-1.184","ADKI","2","m","rechts","22","","","self","j","90","true"
"null","<div style=""font-size:60px;"">+</div>","null","html-keyboard-response","376","264401","0.0-6.0-0.185","ADKI","2","m","rechts","22","","fixation","","","",""
"944","img/90_210.png","74","image-keyboard-response","377","265359","0.0-6.0-1.185","ADKI","2","m","rechts","22","","","self","j","90","true"
"null","<div style=""font-size:60px;"">+</div>","null","html-keyboard-response","378","265870","0.0-6.0-0.186","ADKI","2","m","rechts","22","","fixation","","","",""
"795","img/120_90.png","70","image-keyboard-response","379","266678","0.0-6.0-1.186","ADKI","2","m","rechts","22","","","self","f","120","true"
"null","<div style=""font-size:60px;"">+</div>","null","html-keyboard-response","380","267182","0.0-6.0-0.187","ADKI","2","m","rechts","22","","fixation","","","",""
"799","img/120_180.png","74","image-keyboard-response","381","267993","0.0-6.0-1.187","ADKI","2","m","rechts","22","","","self","j","120","true"
"null","<div style=""font-size:60px;"">+</div>","null","html-keyboard-response","382","268401","0.0-6.0-0.188","ADKI","2","m","rechts","22","","fixation","","","",""
"715","img/90_120.png","70","image-keyboard-response","383","269128","0.0-6.0-1.188","ADKI","2","m","rechts","22","","","self","f","90","true"
"null","<div style=""font-size:60px;"">+</div>","null","html-keyboard-response","384","269431","0.0-6.0-0.189","ADKI","2","m","rechts","22","","fixation","","","",""
"689","img/30_90.png","74","image-keyboard-response","385","270129","0.0-6.0-1.189","ADKI","2","m","rechts","22","","","self","j","30","true"
"null","<div style=""font-size:60px;"">+</div>","null","html-keyboard-response","386","270634","0.0-6.0-0.190","ADKI","2","m","rechts","22","","fixation","","","",""
"597","img/60_180.png","74","image-keyboard-response","387","271245","0.0-6.0-1.190","ADKI","2","m","rechts","22","","","self","j","60","true"
"null","<div style=""font-size:60px;"">+</div>","null","html-keyboard-response","388","271760","0.0-6.0-0.191","ADKI","2","m","rechts","22","","fixation","","","",""
"578","img/90_330.png","70","image-keyboard-response","389","272353","0.0-6.0-1.191","ADKI","2","m","rechts","22","","","self","f","90","true"
"null","<div style=""font-size:60px;"">+</div>","null","html-keyboard-response","390","272729","0.0-6.0-0.192","ADKI","2","m","rechts","22","","fixation","","","",""
"707","img/0_300.png","70","image-keyboard-response","391","273449","0.0-6.0-1.192","ADKI","2","m","rechts","22","","","self","f","0","true"
"null","<div style=""font-size:60px;"">+</div>","null","html-keyboard-response","392","273856","0.0-6.0-0.193","ADKI","2","m","rechts","22","","fixation","","","",""
"528","img/0_330.png","70","image-keyboard-response","393","274393","0.0-6.0-1.193","ADKI","2","m","rechts","22","","","self","f","0","true"
"null","<div style=""font-size:60px;"">+</div>","null","html-keyboard-response","394","274855","0.0-6.0-0.194","ADKI","2","m","rechts","22","","fixation","","","",""
"516","img/0_150.png","74","image-keyboard-response","395","275381","0.0-6.0-1.194","ADKI","2","m","rechts","22","","","self","j","0","true"
"null","<div style=""font-size:60px;"">+</div>","null","html-keyboard-response","396","275761","0.0-6.0-0.195","ADKI","2","m","rechts","22","","fixation","","","",""
"736","img/150_90.png","70","image-keyboard-response","397","276509","0.0-6.0-1.195","ADKI","2","m","rechts","22","","","self","f","150","true"
"null","<div style=""font-size:60px;"">+</div>","null","html-keyboard-response","398","277026","0.0-6.0-0.196","ADKI","2","m","rechts","22","","fixation","","","",""
"662","img/90_150.png","70","image-keyboard-response","399","277703","0.0-6.0-1.196","ADKI","2","m","rechts","22","","","self","f","90","true"
"null","<div style=""font-size:60px;"">+</div>","null","html-keyboard-response","400","278231","0.0-6.0-0.197","ADKI","2","m","rechts","22","","fixation","","","",""
"788","img/60_150.png","70","image-keyboard-response","401","279029","0.0-6.0-1.197","ADKI","2","m","rechts","22","","","self","f","60","true"
"null","<div style=""font-size:60px;"">+</div>","null","html-keyboard-response","402","279357","0.0-6.0-0.198","ADKI","2","m","rechts","22","","fixation","","","",""
"772","img/L150_180.png","70","image-keyboard-response","403","280143","0.0-6.0-1.198","ADKI","2","m","rechts","22","","","self","f","150","true"
"null","<div style=""font-size:60px;"">+</div>","null","html-keyboard-response","404","280560","0.0-6.0-0.199","ADKI","2","m","rechts","22","","fixation","","","",""
"622","img/150_180.png","74","image-keyboard-response","405","281188","0.0-6.0-1.199","ADKI","2","m","rechts","22","","","self","j","150","true"
"null","<div style=""font-size:60px;"">+</div>","null","html-keyboard-response","406","281496","0.0-6.0-0.200","ADKI","2","m","rechts","22","","fixation","","","",""
"581","img/0_60.png","74","image-keyboard-response","407","282089","0.0-6.0-1.200","ADKI","2","m","rechts","22","","","self","j","0","true"
"null","<div style=""font-size:60px;"">+</div>","null","html-keyboard-response","408","282496","0.0-6.0-0.201","ADKI","2","m","rechts","22","","fixation","","","",""
"525","img/0_90.png","74","image-keyboard-response","409","283033","0.0-6.0-1.201","ADKI","2","m","rechts","22","","","self","j","0","true"
"null","<div style=""font-size:60px;"">+</div>","null","html-keyboard-response","410","283402","0.0-6.0-0.202","ADKI","2","m","rechts","22","","fixation","","","",""
"706","img/90_180.png","74","image-keyboard-response","411","284125","0.0-6.0-1.202","ADKI","2","m","rechts","22","","","self","j","90","true"
"null","<div style=""font-size:60px;"">+</div>","null","html-keyboard-response","412","284606","0.0-6.0-0.203","ADKI","2","m","rechts","22","","fixation","","","",""
"574","img/0_270.png","70","image-keyboard-response","413","285193","0.0-6.0-1.203","ADKI","2","m","rechts","22","","","self","f","0","true"
"null","<div style=""font-size:60px;"">+</div>","null","html-keyboard-response","414","285605","0.0-6.0-0.204","ADKI","2","m","rechts","22","","fixation","","","",""
"816","img/120_30.png","74","image-keyboard-response","415","286432","0.0-6.0-1.204","ADKI","2","m","rechts","22","","","self","j","120","true"
"null","<div style=""font-size:60px;"">+</div>","null","html-keyboard-response","416","286886","0.0-6.0-0.205","ADKI","2","m","rechts","22","","fixation","","","",""
"782","img/120_330.png","70","image-keyboard-response","417","287678","0.0-6.0-1.205","ADKI","2","m","rechts","22","","","self","f","120","true"
"null","<div style=""font-size:60px;"">+</div>","null","html-keyboard-response","418","288184","0.0-6.0-0.206","ADKI","2","m","rechts","22","","fixation","","","",""
"507","img/0_120.png","74","image-keyboard-response","419","288705","0.0-6.0-1.206","ADKI","2","m","rechts","22","","","self","j","0","true"
"null","<div style=""font-size:60px;"">+</div>","null","html-keyboard-response","420","289185","0.0-6.0-0.207","ADKI","2","m","rechts","22","","fixation","","","",""
"641","img/120_210.png","74","image-keyboard-response","421","289840","0.0-6.0-1.207","ADKI","2","m","rechts","22","","","self","j","120","true"
"11098","<p>Du hast in 97% der Versuche korrekt entschieden.</p><p>Deine durchschnittliche Reaktionszeit war  782ms.</p><p>Dr&uuml;cke eine beliebige Taste, um die Session zu beenden. Vielen Dank!</p>","32","html-keyboard-response","422","300946","0.0-7.0","ADKI","2","m","rechts","22","","","","","",""
