"rt","stimulus","key_press","trial_type","trial_index","time_elapsed","internal_node_id","subject","session","sex","handedness","age","responses","test_part","condition","correct_response","angle","correct"
"1512","<p>Mental Rotation Experiment.</p> <p>Dr&uuml;cke eine beliebige Taste, um anzufangen.</p>","13","html-keyboard-response","0","1549","0.0-0.0","ADKI","4","m","rechts","22","","","","","",""
"6191","","","survey-text","1","7742","0.0-1.0","ADKI","4","m","rechts","22","{""Q0"":""ADKI""}","","","","",""
"2399","","","survey-text","2","10143","0.0-2.0","ADKI","4","m","rechts","22","{""Q0"":""4""}","","","","",""
"31050","","","survey-multi-choice","3","41210","0.0-3.0","ADKI","4","m","rechts","22","{""Q0"":""m"",""Q1"":""rechts""}","","","","",""
"2717","","","survey-text","4","43930","0.0-4.0","ADKI","4","m","rechts","22","{""Q0"":""22""}","","","","",""
"10081","<p> Stell dir vor, dass du vor einem runden Tisch stehst, auf dem sich ein blauer Ball am Tischrand befindet. Entlang des Tischrands ist jeweils ein verschieden langer Pfeil. Nun bewegst du dich entlang dieses Pfeils bis an seine Spitze. Wenn du am Ende des Pfeils angekommen bist, schau zur Tischmitte. </p> <img src='img/90_180.png'></img> <br> <p>Entscheide dann, ob der Ball von deiner neuen (vorgestellten) Position links oder rechts von dir liegt.</p> <p>Dr&uuml;cke die <strong>'f'</strong>-Taste f&uuml;r links, die <strong>'j'</strong>-Taste f&uuml;r rechts.</p> <br><p> Das Bild wird jeweils 1 Sekunde lang pr&auml;sentiert. Du hast 3 Sekunden Zeit eine Entscheidung zu treffen.</p>","74","html-keyboard-response","5","54020","0.0-5.0","ADKI","4","m","rechts","22","","","","","",""
"null","<div style=""font-size:60px;"">+</div>","null","html-keyboard-response","6","55474","0.0-6.0-0.0","ADKI","4","m","rechts","22","","fixation","","","",""
"2041","img/150_240.png","74","image-keyboard-response","7","57536","0.0-6.0-1.0","ADKI","4","m","rechts","22","","","self","j","150","true"
"null","<div style=""font-size:60px;"">+</div>","null","html-keyboard-response","8","57951","0.0-6.0-0.1","ADKI","4","m","rechts","22","","fixation","","","",""
"719","img/60_330.png","70","image-keyboard-response","9","58677","0.0-6.0-1.1","ADKI","4","m","rechts","22","","","self","f","60","true"
"null","<div style=""font-size:60px;"">+</div>","null","html-keyboard-response","10","58984","0.0-6.0-0.2","ADKI","4","m","rechts","22","","fixation","","","",""
"763","img/120_210.png","74","image-keyboard-response","11","59766","0.0-6.0-1.2","ADKI","4","m","rechts","22","","","self","j","120","true"
"null","<div style=""font-size:60px;"">+</div>","null","html-keyboard-response","12","60171","0.0-6.0-0.3","ADKI","4","m","rechts","22","","fixation","","","",""
"671","img/L60_180.png","70","image-keyboard-response","13","60859","0.0-6.0-1.3","ADKI","4","m","rechts","22","","","self","f","60","true"
"null","<div style=""font-size:60px;"">+</div>","null","html-keyboard-response","14","61335","0.0-6.0-0.4","ADKI","4","m","rechts","22","","fixation","","","",""
"652","img/90_180.png","74","image-keyboard-response","15","61995","0.0-6.0-1.4","ADKI","4","m","rechts","22","","","self","j","90","true"
"null","<div style=""font-size:60px;"">+</div>","null","html-keyboard-response","16","62459","0.0-6.0-0.5","ADKI","4","m","rechts","22","","fixation","","","",""
"665","img/L150_180.png","70","image-keyboard-response","17","63142","0.0-6.0-1.5","ADKI","4","m","rechts","22","","","self","f","150","true"
"null","<div style=""font-size:60px;"">+</div>","null","html-keyboard-response","18","63506","0.0-6.0-0.6","ADKI","4","m","rechts","22","","fixation","","","",""
"643","img/30_300.png","70","image-keyboard-response","19","64167","0.0-6.0-1.6","ADKI","4","m","rechts","22","","","self","f","30","true"
"null","<div style=""font-size:60px;"">+</div>","null","html-keyboard-response","20","64693","0.0-6.0-0.7","ADKI","4","m","rechts","22","","fixation","","","",""
"579","img/60_270.png","70","image-keyboard-response","21","65291","0.0-6.0-1.7","ADKI","4","m","rechts","22","","","self","f","60","true"
"null","<div style=""font-size:60px;"">+</div>","null","html-keyboard-response","22","65804","0.0-6.0-0.8","ADKI","4","m","rechts","22","","fixation","","","",""
"691","img/150_90.png","70","image-keyboard-response","23","66507","0.0-6.0-1.8","ADKI","4","m","rechts","22","","","self","f","150","true"
"null","<div style=""font-size:60px;"">+</div>","null","html-keyboard-response","24","67023","0.0-6.0-0.9","ADKI","4","m","rechts","22","","fixation","","","",""
"601","img/90_120.png","70","image-keyboard-response","25","67642","0.0-6.0-1.9","ADKI","4","m","rechts","22","","","self","f","90","true"
"null","<div style=""font-size:60px;"">+</div>","null","html-keyboard-response","26","68148","0.0-6.0-0.10","ADKI","4","m","rechts","22","","fixation","","","",""
"792","img/30_60.png","74","image-keyboard-response","27","68960","0.0-6.0-1.10","ADKI","4","m","rechts","22","","","self","j","30","true"
"null","<div style=""font-size:60px;"">+</div>","null","html-keyboard-response","28","69414","0.0-6.0-0.11","ADKI","4","m","rechts","22","","fixation","","","",""
"810","img/120_180.png","74","image-keyboard-response","29","70242","0.0-6.0-1.11","ADKI","4","m","rechts","22","","","self","j","120","true"
"null","<div style=""font-size:60px;"">+</div>","null","html-keyboard-response","30","70772","0.0-6.0-0.12","ADKI","4","m","rechts","22","","fixation","","","",""
"655","img/0_150.png","74","image-keyboard-response","31","71435","0.0-6.0-1.12","ADKI","4","m","rechts","22","","","self","j","0","true"
"null","<div style=""font-size:60px;"">+</div>","null","html-keyboard-response","32","71744","0.0-6.0-0.13","ADKI","4","m","rechts","22","","fixation","","","",""
"629","img/60_90.png","74","image-keyboard-response","33","72390","0.0-6.0-1.13","ADKI","4","m","rechts","22","","","self","j","60","true"
"null","<div style=""font-size:60px;"">+</div>","null","html-keyboard-response","34","72868","0.0-6.0-0.14","ADKI","4","m","rechts","22","","fixation","","","",""
"684","img/60_30.png","74","image-keyboard-response","35","73573","0.0-6.0-1.14","ADKI","4","m","rechts","22","","","self","j","60","true"
"null","<div style=""font-size:60px;"">+</div>","null","html-keyboard-response","36","73884","0.0-6.0-0.15","ADKI","4","m","rechts","22","","fixation","","","",""
"737","img/30_240.png","70","image-keyboard-response","37","74639","0.0-6.0-1.15","ADKI","4","m","rechts","22","","","self","f","30","true"
"null","<div style=""font-size:60px;"">+</div>","null","html-keyboard-response","38","75103","0.0-6.0-0.16","ADKI","4","m","rechts","22","","fixation","","","",""
"902","img/150_300.png","74","image-keyboard-response","39","76024","0.0-6.0-1.16","ADKI","4","m","rechts","22","","","self","j","150","true"
"null","<div style=""font-size:60px;"">+</div>","null","html-keyboard-response","40","76339","0.0-6.0-0.17","ADKI","4","m","rechts","22","","fixation","","","",""
"611","img/0_330.png","70","image-keyboard-response","41","76969","0.0-6.0-1.17","ADKI","4","m","rechts","22","","","self","f","0","true"
"null","<div style=""font-size:60px;"">+</div>","null","html-keyboard-response","42","77480","0.0-6.0-0.18","ADKI","4","m","rechts","22","","fixation","","","",""
"822","img/60_150.png","70","image-keyboard-response","43","78320","0.0-6.0-1.18","ADKI","4","m","rechts","22","","","self","f","60","true"
"null","<div style=""font-size:60px;"">+</div>","null","html-keyboard-response","44","78823","0.0-6.0-0.19","ADKI","4","m","rechts","22","","fixation","","","",""
"716","img/90_210.png","74","image-keyboard-response","45","79556","0.0-6.0-1.19","ADKI","4","m","rechts","22","","","self","j","90","true"
"null","<div style=""font-size:60px;"">+</div>","null","html-keyboard-response","46","80089","0.0-6.0-0.20","ADKI","4","m","rechts","22","","fixation","","","",""
"778","img/90_240.png","74","image-keyboard-response","47","80885","0.0-6.0-1.20","ADKI","4","m","rechts","22","","","self","j","90","true"
"null","<div style=""font-size:60px;"">+</div>","null","html-keyboard-response","48","81309","0.0-6.0-0.21","ADKI","4","m","rechts","22","","fixation","","","",""
"796","img/30_120.png","74","image-keyboard-response","49","82122","0.0-6.0-1.21","ADKI","4","m","rechts","22","","","self","j","30","true"
"null","<div style=""font-size:60px;"">+</div>","null","html-keyboard-response","50","82433","0.0-6.0-0.22","ADKI","4","m","rechts","22","","fixation","","","",""
"639","img/0_210.png","70","image-keyboard-response","51","83090","0.0-6.0-1.22","ADKI","4","m","rechts","22","","","self","f","0","true"
"null","<div style=""font-size:60px;"">+</div>","null","html-keyboard-response","52","83496","0.0-6.0-0.23","ADKI","4","m","rechts","22","","fixation","","","",""
"699","img/30_180.png","74","image-keyboard-response","53","84215","0.0-6.0-1.23","ADKI","4","m","rechts","22","","","self","j","30","true"
"null","<div style=""font-size:60px;"">+</div>","null","html-keyboard-response","54","84621","0.0-6.0-0.24","ADKI","4","m","rechts","22","","fixation","","","",""
"867","img/120_90.png","70","image-keyboard-response","55","85507","0.0-6.0-1.24","ADKI","4","m","rechts","22","","","self","f","120","true"
"null","<div style=""font-size:60px;"">+</div>","null","html-keyboard-response","56","85919","0.0-6.0-0.25","ADKI","4","m","rechts","22","","fixation","","","",""
"754","img/L90_180.png","70","image-keyboard-response","57","86690","0.0-6.0-1.25","ADKI","4","m","rechts","22","","","self","f","90","true"
"null","<div style=""font-size:60px;"">+</div>","null","html-keyboard-response","58","87107","0.0-6.0-0.26","ADKI","4","m","rechts","22","","fixation","","","",""
"915","img/90_60.png","74","image-keyboard-response","59","88040","0.0-6.0-1.26","ADKI","4","m","rechts","22","","","self","j","90","true"
"null","<div style=""font-size:60px;"">+</div>","null","html-keyboard-response","60","88512","0.0-6.0-0.27","ADKI","4","m","rechts","22","","fixation","","","",""
"849","img/120_270.png","74","image-keyboard-response","61","89378","0.0-6.0-1.27","ADKI","4","m","rechts","22","","","self","j","120","true"
"null","<div style=""font-size:60px;"">+</div>","null","html-keyboard-response","62","89840","0.0-6.0-0.28","ADKI","4","m","rechts","22","","fixation","","","",""
"725","img/30_270.png","70","image-keyboard-response","63","90582","0.0-6.0-1.28","ADKI","4","m","rechts","22","","","self","f","30","true"
"null","<div style=""font-size:60px;"">+</div>","null","html-keyboard-response","64","90936","0.0-6.0-0.29","ADKI","4","m","rechts","22","","fixation","","","",""
"1338","img/120_330.png","70","image-keyboard-response","65","92290","0.0-6.0-1.29","ADKI","4","m","rechts","22","","","self","f","120","true"
"null","<div style=""font-size:60px;"">+</div>","null","html-keyboard-response","66","92655","0.0-6.0-0.30","ADKI","4","m","rechts","22","","fixation","","","",""
"687","img/0_240.png","70","image-keyboard-response","67","93362","0.0-6.0-1.30","ADKI","4","m","rechts","22","","","self","f","0","true"
"null","<div style=""font-size:60px;"">+</div>","null","html-keyboard-response","68","93733","0.0-6.0-0.31","ADKI","4","m","rechts","22","","fixation","","","",""
"554","img/0_90.png","74","image-keyboard-response","69","94305","0.0-6.0-1.31","ADKI","4","m","rechts","22","","","self","j","0","true"
"null","<div style=""font-size:60px;"">+</div>","null","html-keyboard-response","70","94608","0.0-6.0-0.32","ADKI","4","m","rechts","22","","fixation","","","",""
"592","img/0_300.png","70","image-keyboard-response","71","95217","0.0-6.0-1.32","ADKI","4","m","rechts","22","","","self","f","0","true"
"null","<div style=""font-size:60px;"">+</div>","null","html-keyboard-response","72","95529","0.0-6.0-0.33","ADKI","4","m","rechts","22","","fixation","","","",""
"838","img/150_180.png","74","image-keyboard-response","73","96385","0.0-6.0-1.33","ADKI","4","m","rechts","22","","","self","j","150","true"
"null","<div style=""font-size:60px;"">+</div>","null","html-keyboard-response","74","96797","0.0-6.0-0.34","ADKI","4","m","rechts","22","","fixation","","","",""
"662","img/60_180.png","74","image-keyboard-response","75","97476","0.0-6.0-1.34","ADKI","4","m","rechts","22","","","self","j","60","true"
"null","<div style=""font-size:60px;"">+</div>","null","html-keyboard-response","76","97889","0.0-6.0-0.35","ADKI","4","m","rechts","22","","fixation","","","",""
"539","img/0_60.png","74","image-keyboard-response","77","98435","0.0-6.0-1.35","ADKI","4","m","rechts","22","","","self","j","0","true"
"null","<div style=""font-size:60px;"">+</div>","null","html-keyboard-response","78","98937","0.0-6.0-0.36","ADKI","4","m","rechts","22","","fixation","","","",""
"841","img/150_270.png","74","image-keyboard-response","79","99794","0.0-6.0-1.36","ADKI","4","m","rechts","22","","","self","j","150","true"
"null","<div style=""font-size:60px;"">+</div>","null","html-keyboard-response","80","100218","0.0-6.0-0.37","ADKI","4","m","rechts","22","","fixation","","","",""
"581","img/30_90.png","74","image-keyboard-response","81","100819","0.0-6.0-1.37","ADKI","4","m","rechts","22","","","self","j","30","true"
"null","<div style=""font-size:60px;"">+</div>","null","html-keyboard-response","82","101342","0.0-6.0-0.38","ADKI","4","m","rechts","22","","fixation","","","",""
"696","img/90_150.png","70","image-keyboard-response","83","102057","0.0-6.0-1.38","ADKI","4","m","rechts","22","","","self","f","90","true"
"null","<div style=""font-size:60px;"">+</div>","null","html-keyboard-response","84","102467","0.0-6.0-0.39","ADKI","4","m","rechts","22","","fixation","","","",""
"788","img/90_330.png","70","image-keyboard-response","85","103273","0.0-6.0-1.39","ADKI","4","m","rechts","22","","","self","f","90","true"
"null","<div style=""font-size:60px;"">+</div>","null","html-keyboard-response","86","103685","0.0-6.0-0.40","ADKI","4","m","rechts","22","","fixation","","","",""
"650","img/0_270.png","70","image-keyboard-response","87","104352","0.0-6.0-1.40","ADKI","4","m","rechts","22","","","self","f","0","true"
"null","<div style=""font-size:60px;"">+</div>","null","html-keyboard-response","88","104732","0.0-6.0-0.41","ADKI","4","m","rechts","22","","fixation","","","",""
"632","img/0_120.png","74","image-keyboard-response","89","105376","0.0-6.0-1.41","ADKI","4","m","rechts","22","","","self","j","0","true"
"null","<div style=""font-size:60px;"">+</div>","null","html-keyboard-response","90","105891","0.0-6.0-0.42","ADKI","4","m","rechts","22","","fixation","","","",""
"504","img/0_30.png","74","image-keyboard-response","91","106410","0.0-6.0-1.42","ADKI","4","m","rechts","22","","","self","j","0","true"
"null","<div style=""font-size:60px;"">+</div>","null","html-keyboard-response","92","106875","0.0-6.0-0.43","ADKI","4","m","rechts","22","","fixation","","","",""
"598","img/L30_180.png","70","image-keyboard-response","93","107491","0.0-6.0-1.43","ADKI","4","m","rechts","22","","","self","f","30","true"
"null","<div style=""font-size:60px;"">+</div>","null","html-keyboard-response","94","107813","0.0-6.0-0.44","ADKI","4","m","rechts","22","","fixation","","","",""
"796","img/150_120.png","70","image-keyboard-response","95","108626","0.0-6.0-1.44","ADKI","4","m","rechts","22","","","self","f","150","true"
"null","<div style=""font-size:60px;"">+</div>","null","html-keyboard-response","96","109141","0.0-6.0-0.45","ADKI","4","m","rechts","22","","fixation","","","",""
"812","img/120_30.png","74","image-keyboard-response","97","109978","0.0-6.0-1.45","ADKI","4","m","rechts","22","","","self","j","120","true"
"null","<div style=""font-size:60px;"">+</div>","null","html-keyboard-response","98","110389","0.0-6.0-0.46","ADKI","4","m","rechts","22","","fixation","","","",""
"671","img/150_60.png","70","image-keyboard-response","99","111069","0.0-6.0-1.46","ADKI","4","m","rechts","22","","","self","f","150","true"
"null","<div style=""font-size:60px;"">+</div>","null","html-keyboard-response","100","111374","0.0-6.0-0.47","ADKI","4","m","rechts","22","","fixation","","","",""
"620","img/120_150.png","70","image-keyboard-response","101","112013","0.0-6.0-1.47","ADKI","4","m","rechts","22","","","self","f","120","true"
"null","<div style=""font-size:60px;"">+</div>","null","html-keyboard-response","102","112469","0.0-6.0-0.48","ADKI","4","m","rechts","22","","fixation","","","",""
"841","img/60_210.png","74","image-keyboard-response","103","113330","0.0-6.0-1.48","ADKI","4","m","rechts","22","","","self","j","60","true"
"null","<div style=""font-size:60px;"">+</div>","null","html-keyboard-response","104","113749","0.0-6.0-0.49","ADKI","4","m","rechts","22","","fixation","","","",""
"717","img/L120_180.png","70","image-keyboard-response","105","114478","0.0-6.0-1.49","ADKI","4","m","rechts","22","","","self","f","120","true"
"null","<div style=""font-size:60px;"">+</div>","null","html-keyboard-response","106","115000","0.0-6.0-0.50","ADKI","4","m","rechts","22","","fixation","","","",""
"663","img/90_30.png","74","image-keyboard-response","107","115681","0.0-6.0-1.50","ADKI","4","m","rechts","22","","","self","j","90","true"
"null","<div style=""font-size:60px;"">+</div>","null","html-keyboard-response","108","115986","0.0-6.0-0.51","ADKI","4","m","rechts","22","","fixation","","","",""
"1355","img/90_300.png","70","image-keyboard-response","109","117357","0.0-6.0-1.51","ADKI","4","m","rechts","22","","","self","f","90","true"
"null","<div style=""font-size:60px;"">+</div>","null","html-keyboard-response","110","117782","0.0-6.0-0.52","ADKI","4","m","rechts","22","","fixation","","","",""
"647","img/L150_180.png","70","image-keyboard-response","111","118437","0.0-6.0-1.52","ADKI","4","m","rechts","22","","","self","f","150","true"
"null","<div style=""font-size:60px;"">+</div>","null","html-keyboard-response","112","118845","0.0-6.0-0.53","ADKI","4","m","rechts","22","","fixation","","","",""
"527","img/0_270.png","70","image-keyboard-response","113","119383","0.0-6.0-1.53","ADKI","4","m","rechts","22","","","self","f","0","true"
"null","<div style=""font-size:60px;"">+</div>","null","html-keyboard-response","114","119736","0.0-6.0-0.54","ADKI","4","m","rechts","22","","fixation","","","",""
"601","img/90_330.png","70","image-keyboard-response","115","120348","0.0-6.0-1.54","ADKI","4","m","rechts","22","","","self","f","90","true"
"null","<div style=""font-size:60px;"">+</div>","null","html-keyboard-response","116","120815","0.0-6.0-0.55","ADKI","4","m","rechts","22","","fixation","","","",""
"639","img/60_180.png","74","image-keyboard-response","117","121464","0.0-6.0-1.55","ADKI","4","m","rechts","22","","","self","j","60","true"
"null","<div style=""font-size:60px;"">+</div>","null","html-keyboard-response","118","121877","0.0-6.0-0.56","ADKI","4","m","rechts","22","","fixation","","","",""
"577","img/90_150.png","70","image-keyboard-response","119","122464","0.0-6.0-1.56","ADKI","4","m","rechts","22","","","self","f","90","true"
"null","<div style=""font-size:60px;"">+</div>","null","html-keyboard-response","120","122783","0.0-6.0-0.57","ADKI","4","m","rechts","22","","fixation","","","",""
"573","img/60_30.png","74","image-keyboard-response","121","123364","0.0-6.0-1.57","ADKI","4","m","rechts","22","","","self","j","60","true"
"null","<div style=""font-size:60px;"">+</div>","null","html-keyboard-response","122","123877","0.0-6.0-0.58","ADKI","4","m","rechts","22","","fixation","","","",""
"739","img/150_270.png","74","image-keyboard-response","123","124626","0.0-6.0-1.58","ADKI","4","m","rechts","22","","","self","j","150","true"
"null","<div style=""font-size:60px;"">+</div>","null","html-keyboard-response","124","125127","0.0-6.0-0.59","ADKI","4","m","rechts","22","","fixation","","","",""
"530","img/60_150.png","70","image-keyboard-response","125","125671","0.0-6.0-1.59","ADKI","4","m","rechts","22","","","self","f","60","true"
"null","<div style=""font-size:60px;"">+</div>","null","html-keyboard-response","126","126096","0.0-6.0-0.60","ADKI","4","m","rechts","22","","fixation","","","",""
"644","img/120_90.png","70","image-keyboard-response","127","126750","0.0-6.0-1.60","ADKI","4","m","rechts","22","","","self","f","120","true"
"null","<div style=""font-size:60px;"">+</div>","null","html-keyboard-response","128","127064","0.0-6.0-0.61","ADKI","4","m","rechts","22","","fixation","","","",""
"661","img/60_330.png","70","image-keyboard-response","129","127739","0.0-6.0-1.61","ADKI","4","m","rechts","22","","","self","f","60","true"
"null","<div style=""font-size:60px;"">+</div>","null","html-keyboard-response","130","128142","0.0-6.0-0.62","ADKI","4","m","rechts","22","","fixation","","","",""
"556","img/30_90.png","74","image-keyboard-response","131","128708","0.0-6.0-1.62","ADKI","4","m","rechts","22","","","self","j","30","true"
"null","<div style=""font-size:60px;"">+</div>","null","html-keyboard-response","132","129080","0.0-6.0-0.63","ADKI","4","m","rechts","22","","fixation","","","",""
"518","img/0_60.png","74","image-keyboard-response","133","129608","0.0-6.0-1.63","ADKI","4","m","rechts","22","","","self","j","0","true"
"null","<div style=""font-size:60px;"">+</div>","null","html-keyboard-response","134","130017","0.0-6.0-0.64","ADKI","4","m","rechts","22","","fixation","","","",""
"568","img/30_240.png","70","image-keyboard-response","135","130598","0.0-6.0-1.64","ADKI","4","m","rechts","22","","","self","f","30","true"
"null","<div style=""font-size:60px;"">+</div>","null","html-keyboard-response","136","130910","0.0-6.0-0.65","ADKI","4","m","rechts","22","","fixation","","","",""
"577","img/L60_180.png","70","image-keyboard-response","137","131499","0.0-6.0-1.65","ADKI","4","m","rechts","22","","","self","f","60","true"
"null","<div style=""font-size:60px;"">+</div>","null","html-keyboard-response","138","131800","0.0-6.0-0.66","ADKI","4","m","rechts","22","","fixation","","","",""
"794","img/120_270.png","74","image-keyboard-response","139","132601","0.0-6.0-1.66","ADKI","4","m","rechts","22","","","self","j","120","true"
"null","<div style=""font-size:60px;"">+</div>","null","html-keyboard-response","140","133128","0.0-6.0-0.67","ADKI","4","m","rechts","22","","fixation","","","",""
"621","img/L30_180.png","70","image-keyboard-response","141","133759","0.0-6.0-1.67","ADKI","4","m","rechts","22","","","self","f","30","true"
"null","<div style=""font-size:60px;"">+</div>","null","html-keyboard-response","142","134081","0.0-6.0-0.68","ADKI","4","m","rechts","22","","fixation","","","",""
"677","img/60_270.png","70","image-keyboard-response","143","134771","0.0-6.0-1.68","ADKI","4","m","rechts","22","","","self","f","60","true"
"null","<div style=""font-size:60px;"">+</div>","null","html-keyboard-response","144","135239","0.0-6.0-0.69","ADKI","4","m","rechts","22","","fixation","","","",""
"673","img/120_150.png","70","image-keyboard-response","145","135920","0.0-6.0-1.69","ADKI","4","m","rechts","22","","","self","f","120","true"
"null","<div style=""font-size:60px;"">+</div>","null","html-keyboard-response","146","136441","0.0-6.0-0.70","ADKI","4","m","rechts","22","","fixation","","","",""
"679","img/90_240.png","74","image-keyboard-response","147","137134","0.0-6.0-1.70","ADKI","4","m","rechts","22","","","self","j","90","true"
"null","<div style=""font-size:60px;"">+</div>","null","html-keyboard-response","148","137644","0.0-6.0-0.71","ADKI","4","m","rechts","22","","fixation","","","",""
"539","img/90_300.png","70","image-keyboard-response","149","138193","0.0-6.0-1.71","ADKI","4","m","rechts","22","","","self","f","90","true"
"null","<div style=""font-size:60px;"">+</div>","null","html-keyboard-response","150","138613","0.0-6.0-0.72","ADKI","4","m","rechts","22","","fixation","","","",""
"714","img/30_120.png","74","image-keyboard-response","151","139340","0.0-6.0-1.72","ADKI","4","m","rechts","22","","","self","j","30","true"
"null","<div style=""font-size:60px;"">+</div>","null","html-keyboard-response","152","139716","0.0-6.0-0.73","ADKI","4","m","rechts","22","","fixation","","","",""
"612","img/90_210.png","74","image-keyboard-response","153","140342","0.0-6.0-1.73","ADKI","4","m","rechts","22","","","self","j","90","true"
"null","<div style=""font-size:60px;"">+</div>","null","html-keyboard-response","154","140794","0.0-6.0-0.74","ADKI","4","m","rechts","22","","fixation","","","",""
"508","img/30_60.png","74","image-keyboard-response","155","141309","0.0-6.0-1.74","ADKI","4","m","rechts","22","","","self","j","30","true"
"null","<div style=""font-size:60px;"">+</div>","null","html-keyboard-response","156","141622","0.0-6.0-0.75","ADKI","4","m","rechts","22","","fixation","","","",""
"574","img/120_180.png","74","image-keyboard-response","157","142209","0.0-6.0-1.75","ADKI","4","m","rechts","22","","","self","j","120","true"
"null","<div style=""font-size:60px;"">+</div>","null","html-keyboard-response","158","142528","0.0-6.0-0.76","ADKI","4","m","rechts","22","","fixation","","","",""
"612","img/120_210.png","74","image-keyboard-response","159","143155","0.0-6.0-1.76","ADKI","4","m","rechts","22","","","self","j","120","true"
"null","<div style=""font-size:60px;"">+</div>","null","html-keyboard-response","160","143559","0.0-6.0-0.77","ADKI","4","m","rechts","22","","fixation","","","",""
"560","img/0_300.png","70","image-keyboard-response","161","144133","0.0-6.0-1.77","ADKI","4","m","rechts","22","","","self","f","0","true"
"null","<div style=""font-size:60px;"">+</div>","null","html-keyboard-response","162","144449","0.0-6.0-0.78","ADKI","4","m","rechts","22","","fixation","","","",""
"570","img/60_90.png","74","image-keyboard-response","163","145032","0.0-6.0-1.78","ADKI","4","m","rechts","22","","","self","j","60","true"
"null","<div style=""font-size:60px;"">+</div>","null","html-keyboard-response","164","145356","0.0-6.0-0.79","ADKI","4","m","rechts","22","","fixation","","","",""
"552","img/0_210.png","70","image-keyboard-response","165","145921","0.0-6.0-1.79","ADKI","4","m","rechts","22","","","self","f","0","true"
"null","<div style=""font-size:60px;"">+</div>","null","html-keyboard-response","166","146325","0.0-6.0-0.80","ADKI","4","m","rechts","22","","fixation","","","",""
"924","img/120_30.png","74","image-keyboard-response","167","147260","0.0-6.0-1.80","ADKI","4","m","rechts","22","","","self","j","120","true"
"null","<div style=""font-size:60px;"">+</div>","null","html-keyboard-response","168","147715","0.0-6.0-0.81","ADKI","4","m","rechts","22","","fixation","","","",""
"583","img/L120_180.png","70","image-keyboard-response","169","148307","0.0-6.0-1.81","ADKI","4","m","rechts","22","","","self","f","120","true"
"null","<div style=""font-size:60px;"">+</div>","null","html-keyboard-response","170","148762","0.0-6.0-0.82","ADKI","4","m","rechts","22","","fixation","","","",""
"780","img/120_330.png","70","image-keyboard-response","171","149556","0.0-6.0-1.82","ADKI","4","m","rechts","22","","","self","f","120","true"
"null","<div style=""font-size:60px;"">+</div>","null","html-keyboard-response","172","149965","0.0-6.0-0.83","ADKI","4","m","rechts","22","","fixation","","","",""
"751","img/150_120.png","70","image-keyboard-response","173","150725","0.0-6.0-1.83","ADKI","4","m","rechts","22","","","self","f","150","true"
"null","<div style=""font-size:60px;"">+</div>","null","html-keyboard-response","174","151028","0.0-6.0-0.84","ADKI","4","m","rechts","22","","fixation","","","",""
"515","img/30_270.png","70","image-keyboard-response","175","151557","0.0-6.0-1.84","ADKI","4","m","rechts","22","","","self","f","30","true"
"null","<div style=""font-size:60px;"">+</div>","null","html-keyboard-response","176","151936","0.0-6.0-0.85","ADKI","4","m","rechts","22","","fixation","","","",""
"535","img/0_30.png","74","image-keyboard-response","177","152480","0.0-6.0-1.85","ADKI","4","m","rechts","22","","","self","j","0","true"
"null","<div style=""font-size:60px;"">+</div>","null","html-keyboard-response","178","152904","0.0-6.0-0.86","ADKI","4","m","rechts","22","","fixation","","","",""
"768","img/150_180.png","74","image-keyboard-response","179","153686","0.0-6.0-1.86","ADKI","4","m","rechts","22","","","self","j","150","true"
"null","<div style=""font-size:60px;"">+</div>","null","html-keyboard-response","180","154091","0.0-6.0-0.87","ADKI","4","m","rechts","22","","fixation","","","",""
"661","img/0_330.png","70","image-keyboard-response","181","154764","0.0-6.0-1.87","ADKI","4","m","rechts","22","","","self","f","0","true"
"null","<div style=""font-size:60px;"">+</div>","null","html-keyboard-response","182","155232","0.0-6.0-0.88","ADKI","4","m","rechts","22","","fixation","","","",""
"745","img/150_300.png","74","image-keyboard-response","183","155991","0.0-6.0-1.88","ADKI","4","m","rechts","22","","","self","j","150","true"
"null","<div style=""font-size:60px;"">+</div>","null","html-keyboard-response","184","156449","0.0-6.0-0.89","ADKI","4","m","rechts","22","","fixation","","","",""
"525","img/0_90.png","74","image-keyboard-response","185","156980","0.0-6.0-1.89","ADKI","4","m","rechts","22","","","self","j","0","true"
"null","<div style=""font-size:60px;"">+</div>","null","html-keyboard-response","186","157388","0.0-6.0-0.90","ADKI","4","m","rechts","22","","fixation","","","",""
"638","img/150_240.png","74","image-keyboard-response","187","158039","0.0-6.0-1.90","ADKI","4","m","rechts","22","","","self","j","150","true"
"null","<div style=""font-size:60px;"">+</div>","null","html-keyboard-response","188","158419","0.0-6.0-0.91","ADKI","4","m","rechts","22","","fixation","","","",""
"459","img/0_120.png","74","image-keyboard-response","189","158891","0.0-6.0-1.91","ADKI","4","m","rechts","22","","","self","j","0","true"
"null","<div style=""font-size:60px;"">+</div>","null","html-keyboard-response","190","159215","0.0-6.0-0.92","ADKI","4","m","rechts","22","","fixation","","","",""
"642","img/90_120.png","70","image-keyboard-response","191","159870","0.0-6.0-1.92","ADKI","4","m","rechts","22","","","self","f","90","true"
"null","<div style=""font-size:60px;"">+</div>","null","html-keyboard-response","192","160373","0.0-6.0-0.93","ADKI","4","m","rechts","22","","fixation","","","",""
"771","img/60_210.png","74","image-keyboard-response","193","161154","0.0-6.0-1.93","ADKI","4","m","rechts","22","","","self","j","60","true"
"null","<div style=""font-size:60px;"">+</div>","null","html-keyboard-response","194","161512","0.0-6.0-0.94","ADKI","4","m","rechts","22","","fixation","","","",""
"723","img/150_60.png","70","image-keyboard-response","195","162245","0.0-6.0-1.94","ADKI","4","m","rechts","22","","","self","f","150","true"
"null","<div style=""font-size:60px;"">+</div>","null","html-keyboard-response","196","162715","0.0-6.0-0.95","ADKI","4","m","rechts","22","","fixation","","","",""
"675","img/L90_180.png","70","image-keyboard-response","197","163403","0.0-6.0-1.95","ADKI","4","m","rechts","22","","","self","f","90","true"
"null","<div style=""font-size:60px;"">+</div>","null","html-keyboard-response","198","163762","0.0-6.0-0.96","ADKI","4","m","rechts","22","","fixation","","","",""
"700","img/90_30.png","74","image-keyboard-response","199","164473","0.0-6.0-1.96","ADKI","4","m","rechts","22","","","self","j","90","true"
"null","<div style=""font-size:60px;"">+</div>","null","html-keyboard-response","200","164778","0.0-6.0-0.97","ADKI","4","m","rechts","22","","fixation","","","",""
"707","img/30_180.png","74","image-keyboard-response","201","165498","0.0-6.0-1.97","ADKI","4","m","rechts","22","","","self","j","30","true"
"null","<div style=""font-size:60px;"">+</div>","null","html-keyboard-response","202","165951","0.0-6.0-0.98","ADKI","4","m","rechts","22","","fixation","","","",""
"1016","img/90_60.png","74","image-keyboard-response","203","166983","0.0-6.0-1.98","ADKI","4","m","rechts","22","","","self","j","90","true"
"null","<div style=""font-size:60px;"">+</div>","null","html-keyboard-response","204","167451","0.0-6.0-0.99","ADKI","4","m","rechts","22","","fixation","","","",""
"586","img/0_240.png","70","image-keyboard-response","205","168051","0.0-6.0-1.99","ADKI","4","m","rechts","22","","","self","f","0","true"
"null","<div style=""font-size:60px;"">+</div>","null","html-keyboard-response","206","168514","0.0-6.0-0.100","ADKI","4","m","rechts","22","","fixation","","","",""
"480","img/30_300.png","70","image-keyboard-response","207","169007","0.0-6.0-1.100","ADKI","4","m","rechts","22","","","self","f","30","true"
"null","<div style=""font-size:60px;"">+</div>","null","html-keyboard-response","208","169310","0.0-6.0-0.101","ADKI","4","m","rechts","22","","fixation","","","",""
"661","img/150_90.png","70","image-keyboard-response","209","169985","0.0-6.0-1.101","ADKI","4","m","rechts","22","","","self","f","150","true"
"null","<div style=""font-size:60px;"">+</div>","null","html-keyboard-response","210","170404","0.0-6.0-0.102","ADKI","4","m","rechts","22","","fixation","","","",""
"558","img/90_180.png","74","image-keyboard-response","211","170975","0.0-6.0-1.102","ADKI","4","m","rechts","22","","","self","j","90","true"
"null","<div style=""font-size:60px;"">+</div>","null","html-keyboard-response","212","171452","0.0-6.0-0.103","ADKI","4","m","rechts","22","","fixation","","","",""
"466","img/0_150.png","74","image-keyboard-response","213","171932","0.0-6.0-1.103","ADKI","4","m","rechts","22","","","self","j","0","true"
"null","<div style=""font-size:60px;"">+</div>","null","html-keyboard-response","214","172359","0.0-6.0-0.104","ADKI","4","m","rechts","22","","fixation","","","",""
"493","img/90_300.png","70","image-keyboard-response","215","172864","0.0-6.0-1.104","ADKI","4","m","rechts","22","","","self","f","90","true"
"null","<div style=""font-size:60px;"">+</div>","null","html-keyboard-response","216","173281","0.0-6.0-0.105","ADKI","4","m","rechts","22","","fixation","","","",""
"543","img/60_330.png","70","image-keyboard-response","217","173834","0.0-6.0-1.105","ADKI","4","m","rechts","22","","","self","f","60","true"
"null","<div style=""font-size:60px;"">+</div>","null","html-keyboard-response","218","174140","0.0-6.0-0.106","ADKI","4","m","rechts","22","","fixation","","","",""
"876","img/120_30.png","74","image-keyboard-response","219","175025","0.0-6.0-1.106","ADKI","4","m","rechts","22","","","self","j","120","true"
"null","<div style=""font-size:60px;"">+</div>","null","html-keyboard-response","220","175500","0.0-6.0-0.107","ADKI","4","m","rechts","22","","fixation","","","",""
"560","img/90_150.png","70","image-keyboard-response","221","176073","0.0-6.0-1.107","ADKI","4","m","rechts","22","","","self","f","90","true"
"null","<div style=""font-size:60px;"">+</div>","null","html-keyboard-response","222","176536","0.0-6.0-0.108","ADKI","4","m","rechts","22","","fixation","","","",""
"561","img/90_180.png","74","image-keyboard-response","223","177107","0.0-6.0-1.108","ADKI","4","m","rechts","22","","","self","j","90","true"
"null","<div style=""font-size:60px;"">+</div>","null","html-keyboard-response","224","177488","0.0-6.0-0.109","ADKI","4","m","rechts","22","","fixation","","","",""
"948","img/90_60.png","74","image-keyboard-response","225","178447","0.0-6.0-1.109","ADKI","4","m","rechts","22","","","self","j","90","true"
"null","<div style=""font-size:60px;"">+</div>","null","html-keyboard-response","226","178863","0.0-6.0-0.110","ADKI","4","m","rechts","22","","fixation","","","",""
"588","img/150_90.png","70","image-keyboard-response","227","179456","0.0-6.0-1.110","ADKI","4","m","rechts","22","","","self","f","150","true"
"null","<div style=""font-size:60px;"">+</div>","null","html-keyboard-response","228","179863","0.0-6.0-0.111","ADKI","4","m","rechts","22","","fixation","","","",""
"602","img/30_300.png","70","image-keyboard-response","229","180470","0.0-6.0-1.111","ADKI","4","m","rechts","22","","","self","f","30","true"
"null","<div style=""font-size:60px;"">+</div>","null","html-keyboard-response","230","180974","0.0-6.0-0.112","ADKI","4","m","rechts","22","","fixation","","","",""
"508","img/0_60.png","74","image-keyboard-response","231","181494","0.0-6.0-1.112","ADKI","4","m","rechts","22","","","self","j","0","true"
"null","<div style=""font-size:60px;"">+</div>","null","html-keyboard-response","232","181958","0.0-6.0-0.113","ADKI","4","m","rechts","22","","fixation","","","",""
"584","img/90_210.png","74","image-keyboard-response","233","182552","0.0-6.0-1.113","ADKI","4","m","rechts","22","","","self","j","90","true"
"null","<div style=""font-size:60px;"">+</div>","null","html-keyboard-response","234","183069","0.0-6.0-0.114","ADKI","4","m","rechts","22","","fixation","","","",""
"521","img/L90_180.png","70","image-keyboard-response","235","183598","0.0-6.0-1.114","ADKI","4","m","rechts","22","","","self","f","90","true"
"null","<div style=""font-size:60px;"">+</div>","null","html-keyboard-response","236","183911","0.0-6.0-0.115","ADKI","4","m","rechts","22","","fixation","","","",""
"603","img/150_240.png","74","image-keyboard-response","237","184520","0.0-6.0-1.115","ADKI","4","m","rechts","22","","","self","j","150","true"
"null","<div style=""font-size:60px;"">+</div>","null","html-keyboard-response","238","184833","0.0-6.0-0.116","ADKI","4","m","rechts","22","","fixation","","","",""
"621","img/120_330.png","70","image-keyboard-response","239","185466","0.0-6.0-1.116","ADKI","4","m","rechts","22","","","self","f","120","true"
"null","<div style=""font-size:60px;"">+</div>","null","html-keyboard-response","240","185833","0.0-6.0-0.117","ADKI","4","m","rechts","22","","fixation","","","",""
"589","img/30_270.png","70","image-keyboard-response","241","186435","0.0-6.0-1.117","ADKI","4","m","rechts","22","","","self","f","30","true"
"null","<div style=""font-size:60px;"">+</div>","null","html-keyboard-response","242","186946","0.0-6.0-0.118","ADKI","4","m","rechts","22","","fixation","","","",""
"739","img/150_120.png","70","image-keyboard-response","243","187694","0.0-6.0-1.118","ADKI","4","m","rechts","22","","","self","f","150","true"
"null","<div style=""font-size:60px;"">+</div>","null","html-keyboard-response","244","188054","0.0-6.0-0.119","ADKI","4","m","rechts","22","","fixation","","","",""
"631","img/0_210.png","70","image-keyboard-response","245","188695","0.0-6.0-1.119","ADKI","4","m","rechts","22","","","self","f","0","true"
"null","<div style=""font-size:60px;"">+</div>","null","html-keyboard-response","246","189100","0.0-6.0-0.120","ADKI","4","m","rechts","22","","fixation","","","",""
"946","img/90_30.png","74","image-keyboard-response","247","190056","0.0-6.0-1.120","ADKI","4","m","rechts","22","","","self","j","90","true"
"null","<div style=""font-size:60px;"">+</div>","null","html-keyboard-response","248","190522","0.0-6.0-0.121","ADKI","4","m","rechts","22","","fixation","","","",""
"491","img/0_90.png","74","image-keyboard-response","249","191023","0.0-6.0-1.121","ADKI","4","m","rechts","22","","","self","j","0","true"
"null","<div style=""font-size:60px;"">+</div>","null","html-keyboard-response","250","191540","0.0-6.0-0.122","ADKI","4","m","rechts","22","","fixation","","","",""
"712","img/90_240.png","74","image-keyboard-response","251","192262","0.0-6.0-1.122","ADKI","4","m","rechts","22","","","self","j","90","true"
"null","<div style=""font-size:60px;"">+</div>","null","html-keyboard-response","252","192774","0.0-6.0-0.123","ADKI","4","m","rechts","22","","fixation","","","",""
"557","img/30_120.png","74","image-keyboard-response","253","193341","0.0-6.0-1.123","ADKI","4","m","rechts","22","","","self","j","30","true"
"null","<div style=""font-size:60px;"">+</div>","null","html-keyboard-response","254","193759","0.0-6.0-0.124","ADKI","4","m","rechts","22","","fixation","","","",""
"799","img/150_180.png","74","image-keyboard-response","255","194567","0.0-6.0-1.124","ADKI","4","m","rechts","22","","","self","j","150","true"
"null","<div style=""font-size:60px;"">+</div>","null","html-keyboard-response","256","194929","0.0-6.0-0.125","ADKI","4","m","rechts","22","","fixation","","","",""
"591","img/60_30.png","74","image-keyboard-response","257","195535","0.0-6.0-1.125","ADKI","4","m","rechts","22","","","self","j","60","true"
"null","<div style=""font-size:60px;"">+</div>","null","html-keyboard-response","258","195900","0.0-6.0-0.126","ADKI","4","m","rechts","22","","fixation","","","",""
"562","img/120_180.png","74","image-keyboard-response","259","196468","0.0-6.0-1.126","ADKI","4","m","rechts","22","","","self","j","120","true"
"null","<div style=""font-size:60px;"">+</div>","null","html-keyboard-response","260","196900","0.0-6.0-0.127","ADKI","4","m","rechts","22","","fixation","","","",""
"619","img/30_240.png","70","image-keyboard-response","261","197526","0.0-6.0-1.127","ADKI","4","m","rechts","22","","","self","f","30","true"
"null","<div style=""font-size:60px;"">+</div>","null","html-keyboard-response","262","197931","0.0-6.0-0.128","ADKI","4","m","rechts","22","","fixation","","","",""
"641","img/90_120.png","70","image-keyboard-response","263","198582","0.0-6.0-1.128","ADKI","4","m","rechts","22","","","self","f","90","true"
"null","<div style=""font-size:60px;"">+</div>","null","html-keyboard-response","264","198994","0.0-6.0-0.129","ADKI","4","m","rechts","22","","fixation","","","",""
"533","img/L60_180.png","70","image-keyboard-response","265","199539","0.0-6.0-1.129","ADKI","4","m","rechts","22","","","self","f","60","true"
"null","<div style=""font-size:60px;"">+</div>","null","html-keyboard-response","266","199994","0.0-6.0-0.130","ADKI","4","m","rechts","22","","fixation","","","",""
"522","img/L30_180.png","70","image-keyboard-response","267","200529","0.0-6.0-1.130","ADKI","4","m","rechts","22","","","self","f","30","true"
"null","<div style=""font-size:60px;"">+</div>","null","html-keyboard-response","268","200932","0.0-6.0-0.131","ADKI","4","m","rechts","22","","fixation","","","",""
"572","img/0_270.png","70","image-keyboard-response","269","201518","0.0-6.0-1.131","ADKI","4","m","rechts","22","","","self","f","0","true"
"null","<div style=""font-size:60px;"">+</div>","null","html-keyboard-response","270","201979","0.0-6.0-0.132","ADKI","4","m","rechts","22","","fixation","","","",""
"487","img/0_240.png","70","image-keyboard-response","271","202476","0.0-6.0-1.132","ADKI","4","m","rechts","22","","","self","f","0","true"
"null","<div style=""font-size:60px;"">+</div>","null","html-keyboard-response","272","202792","0.0-6.0-0.133","ADKI","4","m","rechts","22","","fixation","","","",""
"592","img/60_270.png","70","image-keyboard-response","273","203399","0.0-6.0-1.133","ADKI","4","m","rechts","22","","","self","f","60","true"
"null","<div style=""font-size:60px;"">+</div>","null","html-keyboard-response","274","203901","0.0-6.0-0.134","ADKI","4","m","rechts","22","","fixation","","","",""
"570","img/L120_180.png","70","image-keyboard-response","275","204479","0.0-6.0-1.134","ADKI","4","m","rechts","22","","","self","f","120","true"
"null","<div style=""font-size:60px;"">+</div>","null","html-keyboard-response","276","204933","0.0-6.0-0.135","ADKI","4","m","rechts","22","","fixation","","","",""
"625","img/0_300.png","70","image-keyboard-response","277","205569","0.0-6.0-1.135","ADKI","4","m","rechts","22","","","self","f","0","true"
"null","<div style=""font-size:60px;"">+</div>","null","html-keyboard-response","278","205934","0.0-6.0-0.136","ADKI","4","m","rechts","22","","fixation","","","",""
"548","img/0_120.png","74","image-keyboard-response","279","206492","0.0-6.0-1.136","ADKI","4","m","rechts","22","","","self","j","0","true"
"null","<div style=""font-size:60px;"">+</div>","null","html-keyboard-response","280","206871","0.0-6.0-0.137","ADKI","4","m","rechts","22","","fixation","","","",""
"515","img/0_330.png","70","image-keyboard-response","281","207392","0.0-6.0-1.137","ADKI","4","m","rechts","22","","","self","f","0","true"
"null","<div style=""font-size:60px;"">+</div>","null","html-keyboard-response","282","207715","0.0-6.0-0.138","ADKI","4","m","rechts","22","","fixation","","","",""
"608","img/30_90.png","74","image-keyboard-response","283","208339","0.0-6.0-1.138","ADKI","4","m","rechts","22","","","self","j","30","true"
"null","<div style=""font-size:60px;"">+</div>","null","html-keyboard-response","284","208793","0.0-6.0-0.139","ADKI","4","m","rechts","22","","fixation","","","",""
"565","img/120_210.png","74","image-keyboard-response","285","209372","0.0-6.0-1.139","ADKI","4","m","rechts","22","","","self","j","120","true"
"null","<div style=""font-size:60px;"">+</div>","null","html-keyboard-response","286","209839","0.0-6.0-0.140","ADKI","4","m","rechts","22","","fixation","","","",""
"535","img/L150_180.png","70","image-keyboard-response","287","210385","0.0-6.0-1.140","ADKI","4","m","rechts","22","","","self","f","150","true"
"null","<div style=""font-size:60px;"">+</div>","null","html-keyboard-response","288","210855","0.0-6.0-0.141","ADKI","4","m","rechts","22","","fixation","","","",""
"433","img/30_60.png","74","image-keyboard-response","289","211294","0.0-6.0-1.141","ADKI","4","m","rechts","22","","","self","j","30","true"
"null","<div style=""font-size:60px;"">+</div>","null","html-keyboard-response","290","211764","0.0-6.0-0.142","ADKI","4","m","rechts","22","","fixation","","","",""
"793","img/150_60.png","70","image-keyboard-response","291","212567","0.0-6.0-1.142","ADKI","4","m","rechts","22","","","self","f","150","true"
"null","<div style=""font-size:60px;"">+</div>","null","html-keyboard-response","292","212881","0.0-6.0-0.143","ADKI","4","m","rechts","22","","fixation","","","",""
"806","img/150_270.png","74","image-keyboard-response","293","213693","0.0-6.0-1.143","ADKI","4","m","rechts","22","","","self","j","150","true"
"null","<div style=""font-size:60px;"">+</div>","null","html-keyboard-response","294","214116","0.0-6.0-0.144","ADKI","4","m","rechts","22","","fixation","","","",""
"565","img/120_150.png","70","image-keyboard-response","295","214693","0.0-6.0-1.144","ADKI","4","m","rechts","22","","","self","f","120","true"
"null","<div style=""font-size:60px;"">+</div>","null","html-keyboard-response","296","215210","0.0-6.0-0.145","ADKI","4","m","rechts","22","","fixation","","","",""
"904","img/30_180.png","74","image-keyboard-response","297","216124","0.0-6.0-1.145","ADKI","4","m","rechts","22","","","self","j","30","true"
"null","<div style=""font-size:60px;"">+</div>","null","html-keyboard-response","298","216428","0.0-6.0-0.146","ADKI","4","m","rechts","22","","fixation","","","",""
"872","img/120_270.png","74","image-keyboard-response","299","217313","0.0-6.0-1.146","ADKI","4","m","rechts","22","","","self","j","120","true"
"null","<div style=""font-size:60px;"">+</div>","null","html-keyboard-response","300","217787","0.0-6.0-0.147","ADKI","4","m","rechts","22","","fixation","","","",""
"546","img/0_150.png","74","image-keyboard-response","301","218340","0.0-6.0-1.147","ADKI","4","m","rechts","22","","","self","j","0","true"
"null","<div style=""font-size:60px;"">+</div>","null","html-keyboard-response","302","218648","0.0-6.0-0.148","ADKI","4","m","rechts","22","","fixation","","","",""
"712","img/60_210.png","74","image-keyboard-response","303","219374","0.0-6.0-1.148","ADKI","4","m","rechts","22","","","self","j","60","true"
"null","<div style=""font-size:60px;"">+</div>","null","html-keyboard-response","304","219834","0.0-6.0-0.149","ADKI","4","m","rechts","22","","fixation","","","",""
"740","img/120_90.png","70","image-keyboard-response","305","220589","0.0-6.0-1.149","ADKI","4","m","rechts","22","","","self","f","120","true"
"null","<div style=""font-size:60px;"">+</div>","null","html-keyboard-response","306","221055","0.0-6.0-0.150","ADKI","4","m","rechts","22","","fixation","","","",""
"713","img/60_150.png","70","image-keyboard-response","307","221781","0.0-6.0-1.150","ADKI","4","m","rechts","22","","","self","f","60","true"
"null","<div style=""font-size:60px;"">+</div>","null","html-keyboard-response","308","222086","0.0-6.0-0.151","ADKI","4","m","rechts","22","","fixation","","","",""
"694","img/90_330.png","70","image-keyboard-response","309","222795","0.0-6.0-1.151","ADKI","4","m","rechts","22","","","self","f","90","true"
"null","<div style=""font-size:60px;"">+</div>","null","html-keyboard-response","310","223273","0.0-6.0-0.152","ADKI","4","m","rechts","22","","fixation","","","",""
"441","img/0_30.png","74","image-keyboard-response","311","223727","0.0-6.0-1.152","ADKI","4","m","rechts","22","","","self","j","0","true"
"null","<div style=""font-size:60px;"">+</div>","null","html-keyboard-response","312","224242","0.0-6.0-0.153","ADKI","4","m","rechts","22","","fixation","","","",""
"777","img/60_90.png","74","image-keyboard-response","313","225032","0.0-6.0-1.153","ADKI","4","m","rechts","22","","","self","j","60","true"
"null","<div style=""font-size:60px;"">+</div>","null","html-keyboard-response","314","225398","0.0-6.0-0.154","ADKI","4","m","rechts","22","","fixation","","","",""
"780","img/150_300.png","74","image-keyboard-response","315","226191","0.0-6.0-1.154","ADKI","4","m","rechts","22","","","self","j","150","true"
"null","<div style=""font-size:60px;"">+</div>","null","html-keyboard-response","316","226665","0.0-6.0-0.155","ADKI","4","m","rechts","22","","fixation","","","",""
"592","img/60_180.png","74","image-keyboard-response","317","227271","0.0-6.0-1.155","ADKI","4","m","rechts","22","","","self","j","60","true"
"null","<div style=""font-size:60px;"">+</div>","null","html-keyboard-response","318","227681","0.0-6.0-0.156","ADKI","4","m","rechts","22","","fixation","","","",""
"612","img/150_180.png","74","image-keyboard-response","319","228307","0.0-6.0-1.156","ADKI","4","m","rechts","22","","","self","j","150","true"
"null","<div style=""font-size:60px;"">+</div>","null","html-keyboard-response","320","228760","0.0-6.0-0.157","ADKI","4","m","rechts","22","","fixation","","","",""
"501","img/0_90.png","74","image-keyboard-response","321","229273","0.0-6.0-1.157","ADKI","4","m","rechts","22","","","self","j","0","true"
"null","<div style=""font-size:60px;"">+</div>","null","html-keyboard-response","322","229587","0.0-6.0-0.158","ADKI","4","m","rechts","22","","fixation","","","",""
"712","img/120_90.png","70","image-keyboard-response","323","230308","0.0-6.0-1.158","ADKI","4","m","rechts","22","","","self","f","120","true"
"null","<div style=""font-size:60px;"">+</div>","null","html-keyboard-response","324","230666","0.0-6.0-0.159","ADKI","4","m","rechts","22","","fixation","","","",""
"515","img/0_60.png","74","image-keyboard-response","325","231196","0.0-6.0-1.159","ADKI","4","m","rechts","22","","","self","j","0","true"
"null","<div style=""font-size:60px;"">+</div>","null","html-keyboard-response","326","231604","0.0-6.0-0.160","ADKI","4","m","rechts","22","","fixation","","","",""
"675","img/150_270.png","74","image-keyboard-response","327","232289","0.0-6.0-1.160","ADKI","4","m","rechts","22","","","self","j","150","true"
"null","<div style=""font-size:60px;"">+</div>","null","html-keyboard-response","328","232652","0.0-6.0-0.161","ADKI","4","m","rechts","22","","fixation","","","",""
"761","img/60_270.png","74","image-keyboard-response","329","233423","0.0-6.0-1.161","ADKI","4","m","rechts","22","","","self","f","60","false"
"null","<div style=""font-size:60px;"">+</div>","null","html-keyboard-response","330","233729","0.0-6.0-0.162","ADKI","4","m","rechts","22","","fixation","","","",""
"1575","img/150_300.png","70","image-keyboard-response","331","235314","0.0-6.0-1.162","ADKI","4","m","rechts","22","","","self","j","150","false"
"null","<div style=""font-size:60px;"">+</div>","null","html-keyboard-response","332","235682","0.0-6.0-0.163","ADKI","4","m","rechts","22","","fixation","","","",""
"1296","img/120_330.png","70","image-keyboard-response","333","236992","0.0-6.0-1.163","ADKI","4","m","rechts","22","","","self","f","120","true"
"null","<div style=""font-size:60px;"">+</div>","null","html-keyboard-response","334","237511","0.0-6.0-0.164","ADKI","4","m","rechts","22","","fixation","","","",""
"709","img/60_30.png","74","image-keyboard-response","335","238230","0.0-6.0-1.164","ADKI","4","m","rechts","22","","","self","j","60","true"
"null","<div style=""font-size:60px;"">+</div>","null","html-keyboard-response","336","238542","0.0-6.0-0.165","ADKI","4","m","rechts","22","","fixation","","","",""
"630","img/30_300.png","70","image-keyboard-response","337","239185","0.0-6.0-1.165","ADKI","4","m","rechts","22","","","self","f","30","true"
"null","<div style=""font-size:60px;"">+</div>","null","html-keyboard-response","338","239666","0.0-6.0-0.166","ADKI","4","m","rechts","22","","fixation","","","",""
"635","img/L120_180.png","70","image-keyboard-response","339","240311","0.0-6.0-1.166","ADKI","4","m","rechts","22","","","self","f","120","true"
"null","<div style=""font-size:60px;"">+</div>","null","html-keyboard-response","340","240822","0.0-6.0-0.167","ADKI","4","m","rechts","22","","fixation","","","",""
"552","img/30_270.png","70","image-keyboard-response","341","241390","0.0-6.0-1.167","ADKI","4","m","rechts","22","","","self","f","30","true"
"null","<div style=""font-size:60px;"">+</div>","null","html-keyboard-response","342","241855","0.0-6.0-0.168","ADKI","4","m","rechts","22","","fixation","","","",""
"639","img/90_60.png","74","image-keyboard-response","343","242505","0.0-6.0-1.168","ADKI","4","m","rechts","22","","","self","j","90","true"
"null","<div style=""font-size:60px;"">+</div>","null","html-keyboard-response","344","242934","0.0-6.0-0.169","ADKI","4","m","rechts","22","","fixation","","","",""
"596","img/0_300.png","70","image-keyboard-response","345","243539","0.0-6.0-1.169","ADKI","4","m","rechts","22","","","self","f","0","true"
"null","<div style=""font-size:60px;"">+</div>","null","html-keyboard-response","346","243918","0.0-6.0-0.170","ADKI","4","m","rechts","22","","fixation","","","",""
"800","img/150_60.png","70","image-keyboard-response","347","244732","0.0-6.0-1.170","ADKI","4","m","rechts","22","","","self","f","150","true"
"null","<div style=""font-size:60px;"">+</div>","null","html-keyboard-response","348","245042","0.0-6.0-0.171","ADKI","4","m","rechts","22","","fixation","","","",""
"691","img/60_210.png","74","image-keyboard-response","349","245744","0.0-6.0-1.171","ADKI","4","m","rechts","22","","","self","j","60","true"
"null","<div style=""font-size:60px;"">+</div>","null","html-keyboard-response","350","246201","0.0-6.0-0.172","ADKI","4","m","rechts","22","","fixation","","","",""
"532","img/0_210.png","70","image-keyboard-response","351","246746","0.0-6.0-1.172","ADKI","4","m","rechts","22","","","self","f","0","true"
"null","<div style=""font-size:60px;"">+</div>","null","html-keyboard-response","352","247154","0.0-6.0-0.173","ADKI","4","m","rechts","22","","fixation","","","",""
"568","img/L90_180.png","70","image-keyboard-response","353","247736","0.0-6.0-1.173","ADKI","4","m","rechts","22","","","self","f","90","true"
"null","<div style=""font-size:60px;"">+</div>","null","html-keyboard-response","354","248201","0.0-6.0-0.174","ADKI","4","m","rechts","22","","fixation","","","",""
"546","img/L60_180.png","70","image-keyboard-response","355","248759","0.0-6.0-1.174","ADKI","4","m","rechts","22","","","self","f","60","true"
"null","<div style=""font-size:60px;"">+</div>","null","html-keyboard-response","356","249263","0.0-6.0-0.175","ADKI","4","m","rechts","22","","fixation","","","",""
"743","img/30_120.png","74","image-keyboard-response","357","250019","0.0-6.0-1.175","ADKI","4","m","rechts","22","","","self","j","30","true"
"null","<div style=""font-size:60px;"">+</div>","null","html-keyboard-response","358","250330","0.0-6.0-0.176","ADKI","4","m","rechts","22","","fixation","","","",""
"1094","img/90_30.png","74","image-keyboard-response","359","251437","0.0-6.0-1.176","ADKI","4","m","rechts","22","","","self","j","90","true"
"null","<div style=""font-size:60px;"">+</div>","null","html-keyboard-response","360","251767","0.0-6.0-0.177","ADKI","4","m","rechts","22","","fixation","","","",""
"728","img/L150_180.png","70","image-keyboard-response","361","252505","0.0-6.0-1.177","ADKI","4","m","rechts","22","","","self","f","150","true"
"null","<div style=""font-size:60px;"">+</div>","null","html-keyboard-response","362","252875","0.0-6.0-0.178","ADKI","4","m","rechts","22","","fixation","","","",""
"533","img/30_60.png","74","image-keyboard-response","363","253416","0.0-6.0-1.178","ADKI","4","m","rechts","22","","","self","j","30","true"
"null","<div style=""font-size:60px;"">+</div>","null","html-keyboard-response","364","253843","0.0-6.0-0.179","ADKI","4","m","rechts","22","","fixation","","","",""
"716","img/30_180.png","74","image-keyboard-response","365","254572","0.0-6.0-1.179","ADKI","4","m","rechts","22","","","self","j","30","true"
"null","<div style=""font-size:60px;"">+</div>","null","html-keyboard-response","366","255048","0.0-6.0-0.180","ADKI","4","m","rechts","22","","fixation","","","",""
"919","img/120_270.png","74","image-keyboard-response","367","255982","0.0-6.0-1.180","ADKI","4","m","rechts","22","","","self","j","120","true"
"null","<div style=""font-size:60px;"">+</div>","null","html-keyboard-response","368","256454","0.0-6.0-0.181","ADKI","4","m","rechts","22","","fixation","","","",""
"675","img/150_240.png","74","image-keyboard-response","369","257140","0.0-6.0-1.181","ADKI","4","m","rechts","22","","","self","j","150","true"
"null","<div style=""font-size:60px;"">+</div>","null","html-keyboard-response","370","257547","0.0-6.0-0.182","ADKI","4","m","rechts","22","","fixation","","","",""
"636","img/150_90.png","70","image-keyboard-response","371","258198","0.0-6.0-1.182","ADKI","4","m","rechts","22","","","self","f","150","true"
"null","<div style=""font-size:60px;"">+</div>","null","html-keyboard-response","372","258501","0.0-6.0-0.183","ADKI","4","m","rechts","22","","fixation","","","",""
"718","img/90_300.png","70","image-keyboard-response","373","259233","0.0-6.0-1.183","ADKI","4","m","rechts","22","","","self","f","90","true"
"null","<div style=""font-size:60px;"">+</div>","null","html-keyboard-response","374","259562","0.0-6.0-0.184","ADKI","4","m","rechts","22","","fixation","","","",""
"655","img/120_150.png","70","image-keyboard-response","375","260227","0.0-6.0-1.184","ADKI","4","m","rechts","22","","","self","f","120","true"
"null","<div style=""font-size:60px;"">+</div>","null","html-keyboard-response","376","260733","0.0-6.0-0.185","ADKI","4","m","rechts","22","","fixation","","","",""
"575","img/0_120.png","74","image-keyboard-response","377","261313","0.0-6.0-1.185","ADKI","4","m","rechts","22","","","self","j","0","true"
"null","<div style=""font-size:60px;"">+</div>","null","html-keyboard-response","378","261673","0.0-6.0-0.186","ADKI","4","m","rechts","22","","fixation","","","",""
"527","img/0_240.png","70","image-keyboard-response","379","262214","0.0-6.0-1.186","ADKI","4","m","rechts","22","","","self","f","0","true"
"null","<div style=""font-size:60px;"">+</div>","null","html-keyboard-response","380","262579","0.0-6.0-0.187","ADKI","4","m","rechts","22","","fixation","","","",""
"721","img/L30_180.png","70","image-keyboard-response","381","263316","0.0-6.0-1.187","ADKI","4","m","rechts","22","","","self","f","30","true"
"null","<div style=""font-size:60px;"">+</div>","null","html-keyboard-response","382","263673","0.0-6.0-0.188","ADKI","4","m","rechts","22","","fixation","","","",""
"602","img/120_210.png","74","image-keyboard-response","383","264285","0.0-6.0-1.188","ADKI","4","m","rechts","22","","","self","j","120","true"
"null","<div style=""font-size:60px;"">+</div>","null","html-keyboard-response","384","264610","0.0-6.0-0.189","ADKI","4","m","rechts","22","","fixation","","","",""
"605","img/150_120.png","70","image-keyboard-response","385","265229","0.0-6.0-1.189","ADKI","4","m","rechts","22","","","self","f","150","true"
"null","<div style=""font-size:60px;"">+</div>","null","html-keyboard-response","386","265532","0.0-6.0-0.190","ADKI","4","m","rechts","22","","fixation","","","",""
"586","img/60_180.png","74","image-keyboard-response","387","266128","0.0-6.0-1.190","ADKI","4","m","rechts","22","","","self","j","60","true"
"null","<div style=""font-size:60px;"">+</div>","null","html-keyboard-response","388","266549","0.0-6.0-0.191","ADKI","4","m","rechts","22","","fixation","","","",""
"493","img/0_30.png","74","image-keyboard-response","389","267052","0.0-6.0-1.191","ADKI","4","m","rechts","22","","","self","j","0","true"
"null","<div style=""font-size:60px;"">+</div>","null","html-keyboard-response","390","267361","0.0-6.0-0.192","ADKI","4","m","rechts","22","","fixation","","","",""
"519","img/90_150.png","70","image-keyboard-response","391","267894","0.0-6.0-1.192","ADKI","4","m","rechts","22","","","self","f","90","true"
"null","<div style=""font-size:60px;"">+</div>","null","html-keyboard-response","392","268313","0.0-6.0-0.193","ADKI","4","m","rechts","22","","fixation","","","",""
"534","img/120_30.png","74","image-keyboard-response","393","268861","0.0-6.0-1.193","ADKI","4","m","rechts","22","","","self","j","120","true"
"null","<div style=""font-size:60px;"">+</div>","null","html-keyboard-response","394","269235","0.0-6.0-0.194","ADKI","4","m","rechts","22","","fixation","","","",""
"559","img/0_330.png","70","image-keyboard-response","395","269809","0.0-6.0-1.194","ADKI","4","m","rechts","22","","","self","f","0","true"
"null","<div style=""font-size:60px;"">+</div>","null","html-keyboard-response","396","270266","0.0-6.0-0.195","ADKI","4","m","rechts","22","","fixation","","","",""
"709","img/90_240.png","74","image-keyboard-response","397","270989","0.0-6.0-1.195","ADKI","4","m","rechts","22","","","self","j","90","true"
"null","<div style=""font-size:60px;"">+</div>","null","html-keyboard-response","398","271393","0.0-6.0-0.196","ADKI","4","m","rechts","22","","fixation","","","",""
"681","img/90_210.png","74","image-keyboard-response","399","272093","0.0-6.0-1.196","ADKI","4","m","rechts","22","","","self","j","90","true"
"null","<div style=""font-size:60px;"">+</div>","null","html-keyboard-response","400","272425","0.0-6.0-0.197","ADKI","4","m","rechts","22","","fixation","","","",""
"586","img/90_180.png","74","image-keyboard-response","401","273025","0.0-6.0-1.197","ADKI","4","m","rechts","22","","","self","j","90","true"
"null","<div style=""font-size:60px;"">+</div>","null","html-keyboard-response","402","273486","0.0-6.0-0.198","ADKI","4","m","rechts","22","","fixation","","","",""
"548","img/0_270.png","70","image-keyboard-response","403","274049","0.0-6.0-1.198","ADKI","4","m","rechts","22","","","self","f","0","true"
"null","<div style=""font-size:60px;"">+</div>","null","html-keyboard-response","404","274456","0.0-6.0-0.199","ADKI","4","m","rechts","22","","fixation","","","",""
"505","img/90_330.png","70","image-keyboard-response","405","274972","0.0-6.0-1.199","ADKI","4","m","rechts","22","","","self","f","90","true"
"null","<div style=""font-size:60px;"">+</div>","null","html-keyboard-response","406","275393","0.0-6.0-0.200","ADKI","4","m","rechts","22","","fixation","","","",""
"803","img/60_150.png","70","image-keyboard-response","407","276207","0.0-6.0-1.200","ADKI","4","m","rechts","22","","","self","f","60","true"
"null","<div style=""font-size:60px;"">+</div>","null","html-keyboard-response","408","276612","0.0-6.0-0.201","ADKI","4","m","rechts","22","","fixation","","","",""
"541","img/60_90.png","74","image-keyboard-response","409","277163","0.0-6.0-1.201","ADKI","4","m","rechts","22","","","self","j","60","true"
"null","<div style=""font-size:60px;"">+</div>","null","html-keyboard-response","410","277471","0.0-6.0-0.202","ADKI","4","m","rechts","22","","fixation","","","",""
"862","img/90_120.png","70","image-keyboard-response","411","278347","0.0-6.0-1.202","ADKI","4","m","rechts","22","","","self","f","90","true"
"null","<div style=""font-size:60px;"">+</div>","null","html-keyboard-response","412","278752","0.0-6.0-0.203","ADKI","4","m","rechts","22","","fixation","","","",""
"571","img/30_240.png","70","image-keyboard-response","413","279337","0.0-6.0-1.203","ADKI","4","m","rechts","22","","","self","f","30","true"
"null","<div style=""font-size:60px;"">+</div>","null","html-keyboard-response","414","279643","0.0-6.0-0.204","ADKI","4","m","rechts","22","","fixation","","","",""
"759","img/60_330.png","70","image-keyboard-response","415","280416","0.0-6.0-1.204","ADKI","4","m","rechts","22","","","self","f","60","true"
"null","<div style=""font-size:60px;"">+</div>","null","html-keyboard-response","416","280942","0.0-6.0-0.205","ADKI","4","m","rechts","22","","fixation","","","",""
"562","img/30_90.png","74","image-keyboard-response","417","281519","0.0-6.0-1.205","ADKI","4","m","rechts","22","","","self","j","30","true"
"null","<div style=""font-size:60px;"">+</div>","null","html-keyboard-response","418","281925","0.0-6.0-0.206","ADKI","4","m","rechts","22","","fixation","","","",""
"592","img/0_150.png","74","image-keyboard-response","419","282532","0.0-6.0-1.206","ADKI","4","m","rechts","22","","","self","j","0","true"
"null","<div style=""font-size:60px;"">+</div>","null","html-keyboard-response","420","283050","0.0-6.0-0.207","ADKI","4","m","rechts","22","","fixation","","","",""
"691","img/120_180.png","74","image-keyboard-response","421","283757","0.0-6.0-1.207","ADKI","4","m","rechts","22","","","self","j","120","true"
"17190","<p>Du hast in 96% der Versuche korrekt entschieden.</p><p>Deine durchschnittliche Reaktionszeit war  670ms.</p><p>Dr&uuml;cke eine beliebige Taste, um die Session zu beenden. Vielen Dank!</p>","32","html-keyboard-response","422","300957","0.0-7.0","ADKI","4","m","rechts","22","","","","","",""
