"rt","stimulus","key_press","trial_type","trial_index","time_elapsed","internal_node_id","subject","session","sex","handedness","age","responses","test_part","condition","correct_response","angle","correct"
"3076","<p>Mental Rotation Experiment.</p> <p>Dr&uuml;cke eine beliebige Taste, um anzufangen.</p>","70","html-keyboard-response","0","3080","0.0-0.0","MAGA","2","f","rechts","24","","","","","",""
"4080","","","survey-text","1","7162","0.0-1.0","MAGA","2","f","rechts","24","{""Q0"":""MAGA""}","","","","",""
"1747","","","survey-text","2","8910","0.0-2.0","MAGA","2","f","rechts","24","{""Q0"":""2""}","","","","",""
"3469","","","survey-multi-choice","3","12382","0.0-3.0","MAGA","2","f","rechts","24","{""Q0"":""f"",""Q1"":""rechts""}","","","","",""
"2280","","","survey-text","4","14663","0.0-4.0","MAGA","2","f","rechts","24","{""Q0"":""24""}","","","","",""
"838010","<p>Stell dir vor, dass du vor einem runden Tisch stehst, auf dem sich ein blauer Ball am Tischrand befindet. Entlang des Tischrands ist jeweils ein verschieden langer Pfeil. Nun bleibst du an deinem Platz vor dem Tisch und rotierst den Tisch entlang des Pfeils (gleiche Richtung und Länge). </p> <img src='img/30_180.png'></img> <br><p> Nachdem du diese (vorgestellte) Rotation durchgef&uuml;hrt hast, schau in Richtung der Tischmitte, und entscheide dann, ob der Ball links oder rechts von dir liegt.</p> <p>Dr&uuml;cke die <strong>'f'</strong>-Taste f&uuml;r links, die <strong>'j'</strong>-Taste f&uuml;r rechts.</p><br><p> Das Bild wird jeweils 1 Sekunde lang pr&auml;sentiert. Du hast 3 Sekunden Zeit eine Entscheidung zu treffen.</p>","74","html-keyboard-response","5","852674","0.0-5.0","MAGA","2","f","rechts","24","","","","","",""
"null","<div style=""font-size:60px;"">+</div>","null","html-keyboard-response","6","853978","0.0-6.0-0.0","MAGA","2","f","rechts","24","","fixation","","","",""
"947","img/30_60.png","74","image-keyboard-response","7","854927","0.0-6.0-1.0","MAGA","2","f","rechts","24","","","object","j","30","true"
"null","<div style=""font-size:60px;"">+</div>","null","html-keyboard-response","8","855428","0.0-6.0-0.1","MAGA","2","f","rechts","24","","fixation","","","",""
"967","img/60_330.png","74","image-keyboard-response","9","856396","0.0-6.0-1.1","MAGA","2","f","rechts","24","","","object","j","60","true"
"null","<div style=""font-size:60px;"">+</div>","null","html-keyboard-response","10","856747","0.0-6.0-0.2","MAGA","2","f","rechts","24","","fixation","","","",""
"1905","img/150_90.png","74","image-keyboard-response","11","858654","0.0-6.0-1.2","MAGA","2","f","rechts","24","","","object","f","150","false"
"null","<div style=""font-size:60px;"">+</div>","null","html-keyboard-response","12","859156","0.0-6.0-0.3","MAGA","2","f","rechts","24","","fixation","","","",""
"1298","img/30_90.png","74","image-keyboard-response","13","860455","0.0-6.0-1.3","MAGA","2","f","rechts","24","","","object","j","30","true"
"null","<div style=""font-size:60px;"">+</div>","null","html-keyboard-response","14","860957","0.0-6.0-0.4","MAGA","2","f","rechts","24","","fixation","","","",""
"1071","img/L120_180.png","74","image-keyboard-response","15","862029","0.0-6.0-1.4","MAGA","2","f","rechts","24","","","object","j","120","true"
"null","<div style=""font-size:60px;"">+</div>","null","html-keyboard-response","16","862380","0.0-6.0-0.5","MAGA","2","f","rechts","24","","fixation","","","",""
"1078","img/30_240.png","70","image-keyboard-response","17","863460","0.0-6.0-1.5","MAGA","2","f","rechts","24","","","object","f","30","true"
"null","<div style=""font-size:60px;"">+</div>","null","html-keyboard-response","18","863862","0.0-6.0-0.6","MAGA","2","f","rechts","24","","fixation","","","",""
"877","img/0_150.png","74","image-keyboard-response","19","864740","0.0-6.0-1.6","MAGA","2","f","rechts","24","","","object","j","0","true"
"null","<div style=""font-size:60px;"">+</div>","null","html-keyboard-response","20","865092","0.0-6.0-0.7","MAGA","2","f","rechts","24","","fixation","","","",""
"1510","img/30_300.png","70","image-keyboard-response","21","866603","0.0-6.0-1.7","MAGA","2","f","rechts","24","","","object","f","30","true"
"null","<div style=""font-size:60px;"">+</div>","null","html-keyboard-response","22","867055","0.0-6.0-0.8","MAGA","2","f","rechts","24","","fixation","","","",""
"861","img/0_300.png","70","image-keyboard-response","23","867917","0.0-6.0-1.8","MAGA","2","f","rechts","24","","","object","f","0","true"
"null","<div style=""font-size:60px;"">+</div>","null","html-keyboard-response","24","868319","0.0-6.0-0.9","MAGA","2","f","rechts","24","","fixation","","","",""
"1088","img/120_270.png","74","image-keyboard-response","25","869408","0.0-6.0-1.9","MAGA","2","f","rechts","24","","","object","j","120","true"
"null","<div style=""font-size:60px;"">+</div>","null","html-keyboard-response","26","869709","0.0-6.0-0.10","MAGA","2","f","rechts","24","","fixation","","","",""
"1110","img/90_180.png","70","image-keyboard-response","27","870821","0.0-6.0-1.10","MAGA","2","f","rechts","24","","","object","f","90","true"
"null","<div style=""font-size:60px;"">+</div>","null","html-keyboard-response","28","871273","0.0-6.0-0.11","MAGA","2","f","rechts","24","","fixation","","","",""
"789","img/120_330.png","74","image-keyboard-response","29","872063","0.0-6.0-1.11","MAGA","2","f","rechts","24","","","object","j","120","true"
"null","<div style=""font-size:60px;"">+</div>","null","html-keyboard-response","30","872565","0.0-6.0-0.12","MAGA","2","f","rechts","24","","fixation","","","",""
"1072","img/90_60.png","70","image-keyboard-response","31","873639","0.0-6.0-1.12","MAGA","2","f","rechts","24","","","object","f","90","true"
"null","<div style=""font-size:60px;"">+</div>","null","html-keyboard-response","32","874040","0.0-6.0-0.13","MAGA","2","f","rechts","24","","fixation","","","",""
"847","img/0_270.png","70","image-keyboard-response","33","874888","0.0-6.0-1.13","MAGA","2","f","rechts","24","","","object","f","0","true"
"null","<div style=""font-size:60px;"">+</div>","null","html-keyboard-response","34","875239","0.0-6.0-0.14","MAGA","2","f","rechts","24","","fixation","","","",""
"939","img/90_30.png","70","image-keyboard-response","35","876180","0.0-6.0-1.14","MAGA","2","f","rechts","24","","","object","f","90","true"
"null","<div style=""font-size:60px;"">+</div>","null","html-keyboard-response","36","876532","0.0-6.0-0.15","MAGA","2","f","rechts","24","","fixation","","","",""
"702","img/0_120.png","74","image-keyboard-response","37","877236","0.0-6.0-1.15","MAGA","2","f","rechts","24","","","object","j","0","true"
"null","<div style=""font-size:60px;"">+</div>","null","html-keyboard-response","38","877688","0.0-6.0-0.16","MAGA","2","f","rechts","24","","fixation","","","",""
"1929","img/120_90.png","70","image-keyboard-response","39","879618","0.0-6.0-1.16","MAGA","2","f","rechts","24","","","object","f","120","true"
"null","<div style=""font-size:60px;"">+</div>","null","html-keyboard-response","40","880120","0.0-6.0-0.17","MAGA","2","f","rechts","24","","fixation","","","",""
"1061","img/60_90.png","74","image-keyboard-response","41","881182","0.0-6.0-1.17","MAGA","2","f","rechts","24","","","object","j","60","true"
"null","<div style=""font-size:60px;"">+</div>","null","html-keyboard-response","42","881484","0.0-6.0-0.18","MAGA","2","f","rechts","24","","fixation","","","",""
"818","img/90_330.png","74","image-keyboard-response","43","882304","0.0-6.0-1.18","MAGA","2","f","rechts","24","","","object","j","90","true"
"null","<div style=""font-size:60px;"">+</div>","null","html-keyboard-response","44","882655","0.0-6.0-0.19","MAGA","2","f","rechts","24","","fixation","","","",""
"1089","img/120_180.png","70","image-keyboard-response","45","883746","0.0-6.0-1.19","MAGA","2","f","rechts","24","","","object","f","120","true"
"null","<div style=""font-size:60px;"">+</div>","null","html-keyboard-response","46","884148","0.0-6.0-0.20","MAGA","2","f","rechts","24","","fixation","","","",""
"778","img/0_90.png","74","image-keyboard-response","47","884927","0.0-6.0-1.20","MAGA","2","f","rechts","24","","","object","j","0","true"
"null","<div style=""font-size:60px;"">+</div>","null","html-keyboard-response","48","885229","0.0-6.0-0.21","MAGA","2","f","rechts","24","","fixation","","","",""
"638","img/0_240.png","70","image-keyboard-response","49","885868","0.0-6.0-1.21","MAGA","2","f","rechts","24","","","object","f","0","true"
"null","<div style=""font-size:60px;"">+</div>","null","html-keyboard-response","50","886220","0.0-6.0-0.22","MAGA","2","f","rechts","24","","fixation","","","",""
"880","img/150_300.png","74","image-keyboard-response","51","887103","0.0-6.0-1.22","MAGA","2","f","rechts","24","","","object","j","150","true"
"null","<div style=""font-size:60px;"">+</div>","null","html-keyboard-response","52","887504","0.0-6.0-0.23","MAGA","2","f","rechts","24","","fixation","","","",""
"1068","img/L90_180.png","74","image-keyboard-response","53","888573","0.0-6.0-1.23","MAGA","2","f","rechts","24","","","object","j","90","true"
"null","<div style=""font-size:60px;"">+</div>","null","html-keyboard-response","54","889075","0.0-6.0-0.24","MAGA","2","f","rechts","24","","fixation","","","",""
"707","img/0_30.png","74","image-keyboard-response","55","889783","0.0-6.0-1.24","MAGA","2","f","rechts","24","","","object","j","0","true"
"null","<div style=""font-size:60px;"">+</div>","null","html-keyboard-response","56","890135","0.0-6.0-0.25","MAGA","2","f","rechts","24","","fixation","","","",""
"964","img/L30_180.png","74","image-keyboard-response","57","891100","0.0-6.0-1.25","MAGA","2","f","rechts","24","","","object","j","30","true"
"null","<div style=""font-size:60px;"">+</div>","null","html-keyboard-response","58","891502","0.0-6.0-0.26","MAGA","2","f","rechts","24","","fixation","","","",""
"1166","img/90_150.png","74","image-keyboard-response","59","892669","0.0-6.0-1.26","MAGA","2","f","rechts","24","","","object","j","90","true"
"null","<div style=""font-size:60px;"">+</div>","null","html-keyboard-response","60","893071","0.0-6.0-0.27","MAGA","2","f","rechts","24","","fixation","","","",""
"926","img/L150_180.png","74","image-keyboard-response","61","893998","0.0-6.0-1.27","MAGA","2","f","rechts","24","","","object","j","150","true"
"null","<div style=""font-size:60px;"">+</div>","null","html-keyboard-response","62","894300","0.0-6.0-0.28","MAGA","2","f","rechts","24","","fixation","","","",""
"934","img/60_150.png","74","image-keyboard-response","63","895235","0.0-6.0-1.28","MAGA","2","f","rechts","24","","","object","j","60","true"
"null","<div style=""font-size:60px;"">+</div>","null","html-keyboard-response","64","895587","0.0-6.0-0.29","MAGA","2","f","rechts","24","","fixation","","","",""
"1063","img/90_210.png","70","image-keyboard-response","65","896651","0.0-6.0-1.29","MAGA","2","f","rechts","24","","","object","f","90","true"
"null","<div style=""font-size:60px;"">+</div>","null","html-keyboard-response","66","896952","0.0-6.0-0.30","MAGA","2","f","rechts","24","","fixation","","","",""
"888","img/120_30.png","70","image-keyboard-response","67","897841","0.0-6.0-1.30","MAGA","2","f","rechts","24","","","object","f","120","true"
"null","<div style=""font-size:60px;"">+</div>","null","html-keyboard-response","68","898343","0.0-6.0-0.31","MAGA","2","f","rechts","24","","fixation","","","",""
"1063","img/60_180.png","70","image-keyboard-response","69","899408","0.0-6.0-1.31","MAGA","2","f","rechts","24","","","object","f","60","true"
"null","<div style=""font-size:60px;"">+</div>","null","html-keyboard-response","70","899809","0.0-6.0-0.32","MAGA","2","f","rechts","24","","fixation","","","",""
"661","img/0_60.png","74","image-keyboard-response","71","900471","0.0-6.0-1.32","MAGA","2","f","rechts","24","","","object","j","0","true"
"null","<div style=""font-size:60px;"">+</div>","null","html-keyboard-response","72","900773","0.0-6.0-0.33","MAGA","2","f","rechts","24","","fixation","","","",""
"1013","img/150_60.png","70","image-keyboard-response","73","901787","0.0-6.0-1.33","MAGA","2","f","rechts","24","","","object","f","150","true"
"null","<div style=""font-size:60px;"">+</div>","null","html-keyboard-response","74","902289","0.0-6.0-0.34","MAGA","2","f","rechts","24","","fixation","","","",""
"1068","img/30_270.png","70","image-keyboard-response","75","903359","0.0-6.0-1.34","MAGA","2","f","rechts","24","","","object","f","30","true"
"null","<div style=""font-size:60px;"">+</div>","null","html-keyboard-response","76","903810","0.0-6.0-0.35","MAGA","2","f","rechts","24","","fixation","","","",""
"1538","img/120_210.png","70","image-keyboard-response","77","905350","0.0-6.0-1.35","MAGA","2","f","rechts","24","","","object","f","120","true"
"null","<div style=""font-size:60px;"">+</div>","null","html-keyboard-response","78","905802","0.0-6.0-0.36","MAGA","2","f","rechts","24","","fixation","","","",""
"1084","img/L60_180.png","74","image-keyboard-response","79","906887","0.0-6.0-1.36","MAGA","2","f","rechts","24","","","object","j","60","true"
"null","<div style=""font-size:60px;"">+</div>","null","html-keyboard-response","80","907189","0.0-6.0-0.37","MAGA","2","f","rechts","24","","fixation","","","",""
"1128","img/150_180.png","70","image-keyboard-response","81","908318","0.0-6.0-1.37","MAGA","2","f","rechts","24","","","object","f","150","true"
"null","<div style=""font-size:60px;"">+</div>","null","html-keyboard-response","82","908670","0.0-6.0-0.38","MAGA","2","f","rechts","24","","fixation","","","",""
"716","img/30_120.png","74","image-keyboard-response","83","909387","0.0-6.0-1.38","MAGA","2","f","rechts","24","","","object","j","30","true"
"null","<div style=""font-size:60px;"">+</div>","null","html-keyboard-response","84","909739","0.0-6.0-0.39","MAGA","2","f","rechts","24","","fixation","","","",""
"631","img/0_210.png","70","image-keyboard-response","85","910372","0.0-6.0-1.39","MAGA","2","f","rechts","24","","","object","f","0","true"
"null","<div style=""font-size:60px;"">+</div>","null","html-keyboard-response","86","910723","0.0-6.0-0.40","MAGA","2","f","rechts","24","","fixation","","","",""
"1276","img/30_180.png","70","image-keyboard-response","87","912000","0.0-6.0-1.40","MAGA","2","f","rechts","24","","","object","f","30","true"
"null","<div style=""font-size:60px;"">+</div>","null","html-keyboard-response","88","912352","0.0-6.0-0.41","MAGA","2","f","rechts","24","","fixation","","","",""
"1633","img/150_240.png","74","image-keyboard-response","89","913986","0.0-6.0-1.41","MAGA","2","f","rechts","24","","","object","j","150","true"
"null","<div style=""font-size:60px;"">+</div>","null","html-keyboard-response","90","914338","0.0-6.0-0.42","MAGA","2","f","rechts","24","","fixation","","","",""
"1346","img/90_120.png","74","image-keyboard-response","91","915685","0.0-6.0-1.42","MAGA","2","f","rechts","24","","","object","j","90","true"
"null","<div style=""font-size:60px;"">+</div>","null","html-keyboard-response","92","916087","0.0-6.0-0.43","MAGA","2","f","rechts","24","","fixation","","","",""
"1781","img/60_270.png","70","image-keyboard-response","93","917869","0.0-6.0-1.43","MAGA","2","f","rechts","24","","","object","f","60","true"
"null","<div style=""font-size:60px;"">+</div>","null","html-keyboard-response","94","918171","0.0-6.0-0.44","MAGA","2","f","rechts","24","","fixation","","","",""
"704","img/0_330.png","70","image-keyboard-response","95","918876","0.0-6.0-1.44","MAGA","2","f","rechts","24","","","object","f","0","true"
"null","<div style=""font-size:60px;"">+</div>","null","html-keyboard-response","96","919327","0.0-6.0-0.45","MAGA","2","f","rechts","24","","fixation","","","",""
"823","img/90_300.png","74","image-keyboard-response","97","920153","0.0-6.0-1.45","MAGA","2","f","rechts","24","","","object","j","90","true"
"null","<div style=""font-size:60px;"">+</div>","null","html-keyboard-response","98","920554","0.0-6.0-0.46","MAGA","2","f","rechts","24","","fixation","","","",""
"891","img/60_30.png","70","image-keyboard-response","99","921446","0.0-6.0-1.46","MAGA","2","f","rechts","24","","","object","f","60","true"
"null","<div style=""font-size:60px;"">+</div>","null","html-keyboard-response","100","921747","0.0-6.0-0.47","MAGA","2","f","rechts","24","","fixation","","","",""
"1471","img/150_270.png","74","image-keyboard-response","101","923220","0.0-6.0-1.47","MAGA","2","f","rechts","24","","","object","j","150","true"
"null","<div style=""font-size:60px;"">+</div>","null","html-keyboard-response","102","923671","0.0-6.0-0.48","MAGA","2","f","rechts","24","","fixation","","","",""
"1813","img/120_150.png","70","image-keyboard-response","103","925486","0.0-6.0-1.48","MAGA","2","f","rechts","24","","","object","j","120","false"
"null","<div style=""font-size:60px;"">+</div>","null","html-keyboard-response","104","925937","0.0-6.0-0.49","MAGA","2","f","rechts","24","","fixation","","","",""
"1585","img/150_120.png","70","image-keyboard-response","105","927525","0.0-6.0-1.49","MAGA","2","f","rechts","24","","","object","f","150","true"
"null","<div style=""font-size:60px;"">+</div>","null","html-keyboard-response","106","927826","0.0-6.0-0.50","MAGA","2","f","rechts","24","","fixation","","","",""
"1500","img/90_240.png","74","image-keyboard-response","107","929328","0.0-6.0-1.50","MAGA","2","f","rechts","24","","","object","f","90","false"
"null","<div style=""font-size:60px;"">+</div>","null","html-keyboard-response","108","929679","0.0-6.0-0.51","MAGA","2","f","rechts","24","","fixation","","","",""
"1461","img/60_210.png","74","image-keyboard-response","109","931142","0.0-6.0-1.51","MAGA","2","f","rechts","24","","","object","f","60","false"
"null","<div style=""font-size:60px;"">+</div>","null","html-keyboard-response","110","931494","0.0-6.0-0.52","MAGA","2","f","rechts","24","","fixation","","","",""
"1165","img/150_60.png","70","image-keyboard-response","111","932659","0.0-6.0-1.52","MAGA","2","f","rechts","24","","","object","f","150","true"
"null","<div style=""font-size:60px;"">+</div>","null","html-keyboard-response","112","933161","0.0-6.0-0.53","MAGA","2","f","rechts","24","","fixation","","","",""
"632","img/0_150.png","74","image-keyboard-response","113","933795","0.0-6.0-1.53","MAGA","2","f","rechts","24","","","object","j","0","true"
"null","<div style=""font-size:60px;"">+</div>","null","html-keyboard-response","114","934246","0.0-6.0-0.54","MAGA","2","f","rechts","24","","fixation","","","",""
"982","img/90_180.png","70","image-keyboard-response","115","935229","0.0-6.0-1.54","MAGA","2","f","rechts","24","","","object","f","90","true"
"null","<div style=""font-size:60px;"">+</div>","null","html-keyboard-response","116","935581","0.0-6.0-0.55","MAGA","2","f","rechts","24","","fixation","","","",""
"890","img/90_330.png","74","image-keyboard-response","117","936472","0.0-6.0-1.55","MAGA","2","f","rechts","24","","","object","j","90","true"
"null","<div style=""font-size:60px;"">+</div>","null","html-keyboard-response","118","936825","0.0-6.0-0.56","MAGA","2","f","rechts","24","","fixation","","","",""
"1781","img/30_90.png","74","image-keyboard-response","119","938606","0.0-6.0-1.56","MAGA","2","f","rechts","24","","","object","j","30","true"
"null","<div style=""font-size:60px;"">+</div>","null","html-keyboard-response","120","939008","0.0-6.0-0.57","MAGA","2","f","rechts","24","","fixation","","","",""
"871","img/L90_180.png","74","image-keyboard-response","121","939880","0.0-6.0-1.57","MAGA","2","f","rechts","24","","","object","j","90","true"
"null","<div style=""font-size:60px;"">+</div>","null","html-keyboard-response","122","940232","0.0-6.0-0.58","MAGA","2","f","rechts","24","","fixation","","","",""
"937","img/L150_180.png","74","image-keyboard-response","123","941170","0.0-6.0-1.58","MAGA","2","f","rechts","24","","","object","j","150","true"
"null","<div style=""font-size:60px;"">+</div>","null","html-keyboard-response","124","941522","0.0-6.0-0.59","MAGA","2","f","rechts","24","","fixation","","","",""
"838","img/30_120.png","74","image-keyboard-response","125","942360","0.0-6.0-1.59","MAGA","2","f","rechts","24","","","object","j","30","true"
"null","<div style=""font-size:60px;"">+</div>","null","html-keyboard-response","126","942812","0.0-6.0-0.60","MAGA","2","f","rechts","24","","fixation","","","",""
"1094","img/150_270.png","74","image-keyboard-response","127","943906","0.0-6.0-1.60","MAGA","2","f","rechts","24","","","object","j","150","true"
"null","<div style=""font-size:60px;"">+</div>","null","html-keyboard-response","128","944308","0.0-6.0-0.61","MAGA","2","f","rechts","24","","fixation","","","",""
"926","img/150_90.png","70","image-keyboard-response","129","945234","0.0-6.0-1.61","MAGA","2","f","rechts","24","","","object","f","150","true"
"null","<div style=""font-size:60px;"">+</div>","null","html-keyboard-response","130","945686","0.0-6.0-0.62","MAGA","2","f","rechts","24","","fixation","","","",""
"1074","img/L30_180.png","74","image-keyboard-response","131","946760","0.0-6.0-1.62","MAGA","2","f","rechts","24","","","object","j","30","true"
"null","<div style=""font-size:60px;"">+</div>","null","html-keyboard-response","132","947112","0.0-6.0-0.63","MAGA","2","f","rechts","24","","fixation","","","",""
"681","img/0_60.png","74","image-keyboard-response","133","947794","0.0-6.0-1.63","MAGA","2","f","rechts","24","","","object","j","0","true"
"null","<div style=""font-size:60px;"">+</div>","null","html-keyboard-response","134","948296","0.0-6.0-0.64","MAGA","2","f","rechts","24","","fixation","","","",""
"889","img/120_30.png","70","image-keyboard-response","135","949186","0.0-6.0-1.64","MAGA","2","f","rechts","24","","","object","f","120","true"
"null","<div style=""font-size:60px;"">+</div>","null","html-keyboard-response","136","949588","0.0-6.0-0.65","MAGA","2","f","rechts","24","","fixation","","","",""
"852","img/0_300.png","70","image-keyboard-response","137","950441","0.0-6.0-1.65","MAGA","2","f","rechts","24","","","object","f","0","true"
"null","<div style=""font-size:60px;"">+</div>","null","html-keyboard-response","138","950743","0.0-6.0-0.66","MAGA","2","f","rechts","24","","fixation","","","",""
"742","img/60_330.png","74","image-keyboard-response","139","951486","0.0-6.0-1.66","MAGA","2","f","rechts","24","","","object","j","60","true"
"null","<div style=""font-size:60px;"">+</div>","null","html-keyboard-response","140","951838","0.0-6.0-0.67","MAGA","2","f","rechts","24","","fixation","","","",""
"586","img/0_270.png","70","image-keyboard-response","141","952425","0.0-6.0-1.67","MAGA","2","f","rechts","24","","","object","f","0","true"
"null","<div style=""font-size:60px;"">+</div>","null","html-keyboard-response","142","952927","0.0-6.0-0.68","MAGA","2","f","rechts","24","","fixation","","","",""
"1684","img/120_90.png","70","image-keyboard-response","143","954611","0.0-6.0-1.68","MAGA","2","f","rechts","24","","","object","f","120","true"
"null","<div style=""font-size:60px;"">+</div>","null","html-keyboard-response","144","955113","0.0-6.0-0.69","MAGA","2","f","rechts","24","","fixation","","","",""
"1170","img/120_270.png","74","image-keyboard-response","145","956283","0.0-6.0-1.69","MAGA","2","f","rechts","24","","","object","j","120","true"
"null","<div style=""font-size:60px;"">+</div>","null","html-keyboard-response","146","956735","0.0-6.0-0.70","MAGA","2","f","rechts","24","","fixation","","","",""
"1264","img/90_150.png","74","image-keyboard-response","147","957999","0.0-6.0-1.70","MAGA","2","f","rechts","24","","","object","j","90","true"
"null","<div style=""font-size:60px;"">+</div>","null","html-keyboard-response","148","958351","0.0-6.0-0.71","MAGA","2","f","rechts","24","","fixation","","","",""
"899","img/30_180.png","70","image-keyboard-response","149","959250","0.0-6.0-1.71","MAGA","2","f","rechts","24","","","object","f","30","true"
"null","<div style=""font-size:60px;"">+</div>","null","html-keyboard-response","150","959601","0.0-6.0-0.72","MAGA","2","f","rechts","24","","fixation","","","",""
"1907","img/90_210.png","70","image-keyboard-response","151","961509","0.0-6.0-1.72","MAGA","2","f","rechts","24","","","object","f","90","true"
"null","<div style=""font-size:60px;"">+</div>","null","html-keyboard-response","152","961861","0.0-6.0-0.73","MAGA","2","f","rechts","24","","fixation","","","",""
"1689","img/30_300.png","70","image-keyboard-response","153","963550","0.0-6.0-1.73","MAGA","2","f","rechts","24","","","object","f","30","true"
"null","<div style=""font-size:60px;"">+</div>","null","html-keyboard-response","154","964002","0.0-6.0-0.74","MAGA","2","f","rechts","24","","fixation","","","",""
"980","img/30_240.png","70","image-keyboard-response","155","964983","0.0-6.0-1.74","MAGA","2","f","rechts","24","","","object","f","30","true"
"null","<div style=""font-size:60px;"">+</div>","null","html-keyboard-response","156","965384","0.0-6.0-0.75","MAGA","2","f","rechts","24","","fixation","","","",""
"652","img/0_240.png","70","image-keyboard-response","157","966037","0.0-6.0-1.75","MAGA","2","f","rechts","24","","","object","f","0","true"
"null","<div style=""font-size:60px;"">+</div>","null","html-keyboard-response","158","966539","0.0-6.0-0.76","MAGA","2","f","rechts","24","","fixation","","","",""
"867","img/60_150.png","74","image-keyboard-response","159","967406","0.0-6.0-1.76","MAGA","2","f","rechts","24","","","object","j","60","true"
"null","<div style=""font-size:60px;"">+</div>","null","html-keyboard-response","160","967758","0.0-6.0-0.77","MAGA","2","f","rechts","24","","fixation","","","",""
"782","img/0_330.png","70","image-keyboard-response","161","968540","0.0-6.0-1.77","MAGA","2","f","rechts","24","","","object","f","0","true"
"null","<div style=""font-size:60px;"">+</div>","null","html-keyboard-response","162","968942","0.0-6.0-0.78","MAGA","2","f","rechts","24","","fixation","","","",""
"565","img/0_90.png","74","image-keyboard-response","163","969507","0.0-6.0-1.78","MAGA","2","f","rechts","24","","","object","j","0","true"
"null","<div style=""font-size:60px;"">+</div>","null","html-keyboard-response","164","970008","0.0-6.0-0.79","MAGA","2","f","rechts","24","","fixation","","","",""
"1080","img/60_90.png","74","image-keyboard-response","165","971090","0.0-6.0-1.79","MAGA","2","f","rechts","24","","","object","j","60","true"
"null","<div style=""font-size:60px;"">+</div>","null","html-keyboard-response","166","971541","0.0-6.0-0.80","MAGA","2","f","rechts","24","","fixation","","","",""
"1631","img/150_120.png","70","image-keyboard-response","167","973174","0.0-6.0-1.80","MAGA","2","f","rechts","24","","","object","f","150","true"
"null","<div style=""font-size:60px;"">+</div>","null","html-keyboard-response","168","973625","0.0-6.0-0.81","MAGA","2","f","rechts","24","","fixation","","","",""
"769","img/90_30.png","70","image-keyboard-response","169","974396","0.0-6.0-1.81","MAGA","2","f","rechts","24","","","object","f","90","true"
"null","<div style=""font-size:60px;"">+</div>","null","html-keyboard-response","170","974847","0.0-6.0-0.82","MAGA","2","f","rechts","24","","fixation","","","",""
"620","img/0_210.png","70","image-keyboard-response","171","975469","0.0-6.0-1.82","MAGA","2","f","rechts","24","","","object","f","0","true"
"null","<div style=""font-size:60px;"">+</div>","null","html-keyboard-response","172","975770","0.0-6.0-0.83","MAGA","2","f","rechts","24","","fixation","","","",""
"1133","img/150_300.png","74","image-keyboard-response","173","976905","0.0-6.0-1.83","MAGA","2","f","rechts","24","","","object","j","150","true"
"null","<div style=""font-size:60px;"">+</div>","null","html-keyboard-response","174","977406","0.0-6.0-0.84","MAGA","2","f","rechts","24","","fixation","","","",""
"902","img/120_180.png","70","image-keyboard-response","175","978310","0.0-6.0-1.84","MAGA","2","f","rechts","24","","","object","f","120","true"
"null","<div style=""font-size:60px;"">+</div>","null","html-keyboard-response","176","978812","0.0-6.0-0.85","MAGA","2","f","rechts","24","","fixation","","","",""
"896","img/L60_180.png","74","image-keyboard-response","177","979709","0.0-6.0-1.85","MAGA","2","f","rechts","24","","","object","j","60","true"
"null","<div style=""font-size:60px;"">+</div>","null","html-keyboard-response","178","980010","0.0-6.0-0.86","MAGA","2","f","rechts","24","","fixation","","","",""
"627","img/0_30.png","74","image-keyboard-response","179","980639","0.0-6.0-1.86","MAGA","2","f","rechts","24","","","object","j","0","true"
"null","<div style=""font-size:60px;"">+</div>","null","html-keyboard-response","180","981140","0.0-6.0-0.87","MAGA","2","f","rechts","24","","fixation","","","",""
"1703","img/90_120.png","74","image-keyboard-response","181","982845","0.0-6.0-1.87","MAGA","2","f","rechts","24","","","object","j","90","true"
"null","<div style=""font-size:60px;"">+</div>","null","html-keyboard-response","182","983246","0.0-6.0-0.88","MAGA","2","f","rechts","24","","fixation","","","",""
"725","img/30_270.png","70","image-keyboard-response","183","983972","0.0-6.0-1.88","MAGA","2","f","rechts","24","","","object","f","30","true"
"null","<div style=""font-size:60px;"">+</div>","null","html-keyboard-response","184","984274","0.0-6.0-0.89","MAGA","2","f","rechts","24","","fixation","","","",""
"850","img/90_300.png","74","image-keyboard-response","185","985124","0.0-6.0-1.89","MAGA","2","f","rechts","24","","","object","j","90","true"
"null","<div style=""font-size:60px;"">+</div>","null","html-keyboard-response","186","985476","0.0-6.0-0.90","MAGA","2","f","rechts","24","","fixation","","","",""
"677","img/120_330.png","74","image-keyboard-response","187","986154","0.0-6.0-1.90","MAGA","2","f","rechts","24","","","object","j","120","true"
"null","<div style=""font-size:60px;"">+</div>","null","html-keyboard-response","188","986556","0.0-6.0-0.91","MAGA","2","f","rechts","24","","fixation","","","",""
"1875","img/120_150.png","74","image-keyboard-response","189","988433","0.0-6.0-1.91","MAGA","2","f","rechts","24","","","object","j","120","true"
"null","<div style=""font-size:60px;"">+</div>","null","html-keyboard-response","190","988834","0.0-6.0-0.92","MAGA","2","f","rechts","24","","fixation","","","",""
"1544","img/30_60.png","74","image-keyboard-response","191","990379","0.0-6.0-1.92","MAGA","2","f","rechts","24","","","object","j","30","true"
"null","<div style=""font-size:60px;"">+</div>","null","html-keyboard-response","192","990831","0.0-6.0-0.93","MAGA","2","f","rechts","24","","fixation","","","",""
"855","img/90_60.png","70","image-keyboard-response","193","991686","0.0-6.0-1.93","MAGA","2","f","rechts","24","","","object","f","90","true"
"null","<div style=""font-size:60px;"">+</div>","null","html-keyboard-response","194","992038","0.0-6.0-0.94","MAGA","2","f","rechts","24","","fixation","","","",""
"1003","img/L120_180.png","74","image-keyboard-response","195","993042","0.0-6.0-1.94","MAGA","2","f","rechts","24","","","object","j","120","true"
"null","<div style=""font-size:60px;"">+</div>","null","html-keyboard-response","196","993494","0.0-6.0-0.95","MAGA","2","f","rechts","24","","fixation","","","",""
"1472","img/120_210.png","70","image-keyboard-response","197","994967","0.0-6.0-1.95","MAGA","2","f","rechts","24","","","object","f","120","true"
"null","<div style=""font-size:60px;"">+</div>","null","html-keyboard-response","198","995269","0.0-6.0-0.96","MAGA","2","f","rechts","24","","fixation","","","",""
"821","img/60_30.png","70","image-keyboard-response","199","996090","0.0-6.0-1.96","MAGA","2","f","rechts","24","","","object","f","60","true"
"null","<div style=""font-size:60px;"">+</div>","null","html-keyboard-response","200","996492","0.0-6.0-0.97","MAGA","2","f","rechts","24","","fixation","","","",""
"1638","img/150_240.png","74","image-keyboard-response","201","998130","0.0-6.0-1.97","MAGA","2","f","rechts","24","","","object","j","150","true"
"null","<div style=""font-size:60px;"">+</div>","null","html-keyboard-response","202","998582","0.0-6.0-0.98","MAGA","2","f","rechts","24","","fixation","","","",""
"1388","img/60_270.png","70","image-keyboard-response","203","999970","0.0-6.0-1.98","MAGA","2","f","rechts","24","","","object","f","60","true"
"null","<div style=""font-size:60px;"">+</div>","null","html-keyboard-response","204","1000322","0.0-6.0-0.99","MAGA","2","f","rechts","24","","fixation","","","",""
"1676","img/150_180.png","74","image-keyboard-response","205","1001999","0.0-6.0-1.99","MAGA","2","f","rechts","24","","","object","f","150","false"
"null","<div style=""font-size:60px;"">+</div>","null","html-keyboard-response","206","1002451","0.0-6.0-0.100","MAGA","2","f","rechts","24","","fixation","","","",""
"1621","img/60_180.png","70","image-keyboard-response","207","1004072","0.0-6.0-1.100","MAGA","2","f","rechts","24","","","object","f","60","true"
"null","<div style=""font-size:60px;"">+</div>","null","html-keyboard-response","208","1004524","0.0-6.0-0.101","MAGA","2","f","rechts","24","","fixation","","","",""
"585","img/0_120.png","74","image-keyboard-response","209","1005109","0.0-6.0-1.101","MAGA","2","f","rechts","24","","","object","j","0","true"
"null","<div style=""font-size:60px;"">+</div>","null","html-keyboard-response","210","1005611","0.0-6.0-0.102","MAGA","2","f","rechts","24","","fixation","","","",""
"1064","img/60_210.png","70","image-keyboard-response","211","1006676","0.0-6.0-1.102","MAGA","2","f","rechts","24","","","object","f","60","true"
"null","<div style=""font-size:60px;"">+</div>","null","html-keyboard-response","212","1007128","0.0-6.0-0.103","MAGA","2","f","rechts","24","","fixation","","","",""
"1550","img/90_240.png","70","image-keyboard-response","213","1008679","0.0-6.0-1.103","MAGA","2","f","rechts","24","","","object","f","90","true"
"null","<div style=""font-size:60px;"">+</div>","null","html-keyboard-response","214","1009131","0.0-6.0-0.104","MAGA","2","f","rechts","24","","fixation","","","",""
"1830","img/150_120.png","70","image-keyboard-response","215","1010962","0.0-6.0-1.104","MAGA","2","f","rechts","24","","","object","f","150","true"
"null","<div style=""font-size:60px;"">+</div>","null","html-keyboard-response","216","1011263","0.0-6.0-0.105","MAGA","2","f","rechts","24","","fixation","","","",""
"1165","img/60_150.png","74","image-keyboard-response","217","1012429","0.0-6.0-1.105","MAGA","2","f","rechts","24","","","object","j","60","true"
"null","<div style=""font-size:60px;"">+</div>","null","html-keyboard-response","218","1012731","0.0-6.0-0.106","MAGA","2","f","rechts","24","","fixation","","","",""
"667","img/0_240.png","70","image-keyboard-response","219","1013398","0.0-6.0-1.106","MAGA","2","f","rechts","24","","","object","f","0","true"
"null","<div style=""font-size:60px;"">+</div>","null","html-keyboard-response","220","1013850","0.0-6.0-0.107","MAGA","2","f","rechts","24","","fixation","","","",""
"958","img/L90_180.png","74","image-keyboard-response","221","1014808","0.0-6.0-1.107","MAGA","2","f","rechts","24","","","object","j","90","true"
"null","<div style=""font-size:60px;"">+</div>","null","html-keyboard-response","222","1015310","0.0-6.0-0.108","MAGA","2","f","rechts","24","","fixation","","","",""
"631","img/60_210.png","70","image-keyboard-response","223","1015941","0.0-6.0-1.108","MAGA","2","f","rechts","24","","","object","f","60","true"
"null","<div style=""font-size:60px;"">+</div>","null","html-keyboard-response","224","1016343","0.0-6.0-0.109","MAGA","2","f","rechts","24","","fixation","","","",""
"898","img/L150_180.png","74","image-keyboard-response","225","1017241","0.0-6.0-1.109","MAGA","2","f","rechts","24","","","object","j","150","true"
"null","<div style=""font-size:60px;"">+</div>","null","html-keyboard-response","226","1017593","0.0-6.0-0.110","MAGA","2","f","rechts","24","","fixation","","","",""
"1366","img/150_90.png","70","image-keyboard-response","227","1018959","0.0-6.0-1.110","MAGA","2","f","rechts","24","","","object","f","150","true"
"null","<div style=""font-size:60px;"">+</div>","null","html-keyboard-response","228","1019261","0.0-6.0-0.111","MAGA","2","f","rechts","24","","fixation","","","",""
"863","img/120_30.png","70","image-keyboard-response","229","1020124","0.0-6.0-1.111","MAGA","2","f","rechts","24","","","object","f","120","true"
"null","<div style=""font-size:60px;"">+</div>","null","html-keyboard-response","230","1020576","0.0-6.0-0.112","MAGA","2","f","rechts","24","","fixation","","","",""
"1110","img/L120_180.png","74","image-keyboard-response","231","1021687","0.0-6.0-1.112","MAGA","2","f","rechts","24","","","object","j","120","true"
"null","<div style=""font-size:60px;"">+</div>","null","html-keyboard-response","232","1022188","0.0-6.0-0.113","MAGA","2","f","rechts","24","","fixation","","","",""
"638","img/0_90.png","74","image-keyboard-response","233","1022827","0.0-6.0-1.113","MAGA","2","f","rechts","24","","","object","j","0","true"
"null","<div style=""font-size:60px;"">+</div>","null","html-keyboard-response","234","1023279","0.0-6.0-0.114","MAGA","2","f","rechts","24","","fixation","","","",""
"560","img/0_150.png","74","image-keyboard-response","235","1023839","0.0-6.0-1.114","MAGA","2","f","rechts","24","","","object","j","0","true"
"null","<div style=""font-size:60px;"">+</div>","null","html-keyboard-response","236","1024140","0.0-6.0-0.115","MAGA","2","f","rechts","24","","fixation","","","",""
"990","img/90_120.png","74","image-keyboard-response","237","1025132","0.0-6.0-1.115","MAGA","2","f","rechts","24","","","object","j","90","true"
"null","<div style=""font-size:60px;"">+</div>","null","html-keyboard-response","238","1025633","0.0-6.0-0.116","MAGA","2","f","rechts","24","","fixation","","","",""
"776","img/30_180.png","70","image-keyboard-response","239","1026411","0.0-6.0-1.116","MAGA","2","f","rechts","24","","","object","f","30","true"
"null","<div style=""font-size:60px;"">+</div>","null","html-keyboard-response","240","1026862","0.0-6.0-0.117","MAGA","2","f","rechts","24","","fixation","","","",""
"1199","img/120_90.png","70","image-keyboard-response","241","1028062","0.0-6.0-1.117","MAGA","2","f","rechts","24","","","object","f","120","true"
"null","<div style=""font-size:60px;"">+</div>","null","html-keyboard-response","242","1028464","0.0-6.0-0.118","MAGA","2","f","rechts","24","","fixation","","","",""
"649","img/30_90.png","70","image-keyboard-response","243","1029114","0.0-6.0-1.118","MAGA","2","f","rechts","24","","","object","j","30","false"
"null","<div style=""font-size:60px;"">+</div>","null","html-keyboard-response","244","1029515","0.0-6.0-0.119","MAGA","2","f","rechts","24","","fixation","","","",""
"1096","img/150_60.png","70","image-keyboard-response","245","1030612","0.0-6.0-1.119","MAGA","2","f","rechts","24","","","object","f","150","true"
"null","<div style=""font-size:60px;"">+</div>","null","html-keyboard-response","246","1031014","0.0-6.0-0.120","MAGA","2","f","rechts","24","","fixation","","","",""
"801","img/120_330.png","74","image-keyboard-response","247","1031816","0.0-6.0-1.120","MAGA","2","f","rechts","24","","","object","j","120","true"
"null","<div style=""font-size:60px;"">+</div>","null","html-keyboard-response","248","1032318","0.0-6.0-0.121","MAGA","2","f","rechts","24","","fixation","","","",""
"1233","img/60_90.png","74","image-keyboard-response","249","1033553","0.0-6.0-1.121","MAGA","2","f","rechts","24","","","object","j","60","true"
"null","<div style=""font-size:60px;"">+</div>","null","html-keyboard-response","250","1033854","0.0-6.0-0.122","MAGA","2","f","rechts","24","","fixation","","","",""
"609","img/0_270.png","70","image-keyboard-response","251","1034464","0.0-6.0-1.122","MAGA","2","f","rechts","24","","","object","f","0","true"
"null","<div style=""font-size:60px;"">+</div>","null","html-keyboard-response","252","1034816","0.0-6.0-0.123","MAGA","2","f","rechts","24","","fixation","","","",""
"752","img/60_330.png","74","image-keyboard-response","253","1035568","0.0-6.0-1.123","MAGA","2","f","rechts","24","","","object","j","60","true"
"null","<div style=""font-size:60px;"">+</div>","null","html-keyboard-response","254","1035970","0.0-6.0-0.124","MAGA","2","f","rechts","24","","fixation","","","",""
"1091","img/150_270.png","74","image-keyboard-response","255","1037063","0.0-6.0-1.124","MAGA","2","f","rechts","24","","","object","j","150","true"
"null","<div style=""font-size:60px;"">+</div>","null","html-keyboard-response","256","1037514","0.0-6.0-0.125","MAGA","2","f","rechts","24","","fixation","","","",""
"544","img/0_60.png","74","image-keyboard-response","257","1038059","0.0-6.0-1.125","MAGA","2","f","rechts","24","","","object","j","0","true"
"null","<div style=""font-size:60px;"">+</div>","null","html-keyboard-response","258","1038361","0.0-6.0-0.126","MAGA","2","f","rechts","24","","fixation","","","",""
"733","img/L30_180.png","74","image-keyboard-response","259","1039095","0.0-6.0-1.126","MAGA","2","f","rechts","24","","","object","j","30","true"
"null","<div style=""font-size:60px;"">+</div>","null","html-keyboard-response","260","1039497","0.0-6.0-0.127","MAGA","2","f","rechts","24","","fixation","","","",""
"1304","img/150_240.png","74","image-keyboard-response","261","1040802","0.0-6.0-1.127","MAGA","2","f","rechts","24","","","object","j","150","true"
"null","<div style=""font-size:60px;"">+</div>","null","html-keyboard-response","262","1041154","0.0-6.0-0.128","MAGA","2","f","rechts","24","","fixation","","","",""
"1595","img/90_180.png","70","image-keyboard-response","263","1042750","0.0-6.0-1.128","MAGA","2","f","rechts","24","","","object","f","90","true"
"null","<div style=""font-size:60px;"">+</div>","null","html-keyboard-response","264","1043202","0.0-6.0-0.129","MAGA","2","f","rechts","24","","fixation","","","",""
"606","img/0_30.png","74","image-keyboard-response","265","1043809","0.0-6.0-1.129","MAGA","2","f","rechts","24","","","object","j","0","true"
"null","<div style=""font-size:60px;"">+</div>","null","html-keyboard-response","266","1044311","0.0-6.0-0.130","MAGA","2","f","rechts","24","","fixation","","","",""
"909","img/90_300.png","74","image-keyboard-response","267","1045221","0.0-6.0-1.130","MAGA","2","f","rechts","24","","","object","j","90","true"
"null","<div style=""font-size:60px;"">+</div>","null","html-keyboard-response","268","1045673","0.0-6.0-0.131","MAGA","2","f","rechts","24","","fixation","","","",""
"2138","img/120_180.png","74","image-keyboard-response","269","1047811","0.0-6.0-1.131","MAGA","2","f","rechts","24","","","object","f","120","false"
"null","<div style=""font-size:60px;"">+</div>","null","html-keyboard-response","270","1048313","0.0-6.0-0.132","MAGA","2","f","rechts","24","","fixation","","","",""
"1296","img/90_150.png","74","image-keyboard-response","271","1049610","0.0-6.0-1.132","MAGA","2","f","rechts","24","","","object","j","90","true"
"null","<div style=""font-size:60px;"">+</div>","null","html-keyboard-response","272","1050012","0.0-6.0-0.133","MAGA","2","f","rechts","24","","fixation","","","",""
"1241","img/90_60.png","70","image-keyboard-response","273","1051254","0.0-6.0-1.133","MAGA","2","f","rechts","24","","","object","f","90","true"
"null","<div style=""font-size:60px;"">+</div>","null","html-keyboard-response","274","1051656","0.0-6.0-0.134","MAGA","2","f","rechts","24","","fixation","","","",""
"729","img/30_300.png","74","image-keyboard-response","275","1052385","0.0-6.0-1.134","MAGA","2","f","rechts","24","","","object","f","30","false"
"null","<div style=""font-size:60px;"">+</div>","null","html-keyboard-response","276","1052737","0.0-6.0-0.135","MAGA","2","f","rechts","24","","fixation","","","",""
"909","img/30_240.png","70","image-keyboard-response","277","1053647","0.0-6.0-1.135","MAGA","2","f","rechts","24","","","object","f","30","true"
"null","<div style=""font-size:60px;"">+</div>","null","html-keyboard-response","278","1053949","0.0-6.0-0.136","MAGA","2","f","rechts","24","","fixation","","","",""
"1130","img/60_30.png","70","image-keyboard-response","279","1055079","0.0-6.0-1.136","MAGA","2","f","rechts","24","","","object","f","60","true"
"null","<div style=""font-size:60px;"">+</div>","null","html-keyboard-response","280","1055431","0.0-6.0-0.137","MAGA","2","f","rechts","24","","fixation","","","",""
"840","img/0_210.png","70","image-keyboard-response","281","1056271","0.0-6.0-1.137","MAGA","2","f","rechts","24","","","object","f","0","true"
"null","<div style=""font-size:60px;"">+</div>","null","html-keyboard-response","282","1056673","0.0-6.0-0.138","MAGA","2","f","rechts","24","","fixation","","","",""
"1077","img/90_210.png","74","image-keyboard-response","283","1057751","0.0-6.0-1.138","MAGA","2","f","rechts","24","","","object","f","90","false"
"null","<div style=""font-size:60px;"">+</div>","null","html-keyboard-response","284","1058253","0.0-6.0-0.139","MAGA","2","f","rechts","24","","fixation","","","",""
"717","img/0_120.png","74","image-keyboard-response","285","1058971","0.0-6.0-1.139","MAGA","2","f","rechts","24","","","object","j","0","true"
"null","<div style=""font-size:60px;"">+</div>","null","html-keyboard-response","286","1059323","0.0-6.0-0.140","MAGA","2","f","rechts","24","","fixation","","","",""
"997","img/150_300.png","74","image-keyboard-response","287","1060320","0.0-6.0-1.140","MAGA","2","f","rechts","24","","","object","j","150","true"
"null","<div style=""font-size:60px;"">+</div>","null","html-keyboard-response","288","1060772","0.0-6.0-0.141","MAGA","2","f","rechts","24","","fixation","","","",""
"626","img/90_330.png","74","image-keyboard-response","289","1061398","0.0-6.0-1.141","MAGA","2","f","rechts","24","","","object","j","90","true"
"null","<div style=""font-size:60px;"">+</div>","null","html-keyboard-response","290","1061750","0.0-6.0-0.142","MAGA","2","f","rechts","24","","fixation","","","",""
"1793","img/150_180.png","70","image-keyboard-response","291","1063543","0.0-6.0-1.142","MAGA","2","f","rechts","24","","","object","f","150","true"
"null","<div style=""font-size:60px;"">+</div>","null","html-keyboard-response","292","1063894","0.0-6.0-0.143","MAGA","2","f","rechts","24","","fixation","","","",""
"1082","img/90_30.png","70","image-keyboard-response","293","1064977","0.0-6.0-1.143","MAGA","2","f","rechts","24","","","object","f","90","true"
"null","<div style=""font-size:60px;"">+</div>","null","html-keyboard-response","294","1065479","0.0-6.0-0.144","MAGA","2","f","rechts","24","","fixation","","","",""
"1739","img/60_270.png","74","image-keyboard-response","295","1067218","0.0-6.0-1.144","MAGA","2","f","rechts","24","","","object","f","60","false"
"null","<div style=""font-size:60px;"">+</div>","null","html-keyboard-response","296","1067670","0.0-6.0-0.145","MAGA","2","f","rechts","24","","fixation","","","",""
"1568","img/30_120.png","74","image-keyboard-response","297","1069238","0.0-6.0-1.145","MAGA","2","f","rechts","24","","","object","j","30","true"
"null","<div style=""font-size:60px;"">+</div>","null","html-keyboard-response","298","1069740","0.0-6.0-0.146","MAGA","2","f","rechts","24","","fixation","","","",""
"1868","img/90_240.png","70","image-keyboard-response","299","1071609","0.0-6.0-1.146","MAGA","2","f","rechts","24","","","object","f","90","true"
"null","<div style=""font-size:60px;"">+</div>","null","html-keyboard-response","300","1071910","0.0-6.0-0.147","MAGA","2","f","rechts","24","","fixation","","","",""
"1892","img/120_150.png","74","image-keyboard-response","301","1073803","0.0-6.0-1.147","MAGA","2","f","rechts","24","","","object","j","120","true"
"null","<div style=""font-size:60px;"">+</div>","null","html-keyboard-response","302","1074104","0.0-6.0-0.148","MAGA","2","f","rechts","24","","fixation","","","",""
"1221","img/30_270.png","70","image-keyboard-response","303","1075327","0.0-6.0-1.148","MAGA","2","f","rechts","24","","","object","f","30","true"
"null","<div style=""font-size:60px;"">+</div>","null","html-keyboard-response","304","1075628","0.0-6.0-0.149","MAGA","2","f","rechts","24","","fixation","","","",""
"893","img/30_60.png","74","image-keyboard-response","305","1076522","0.0-6.0-1.149","MAGA","2","f","rechts","24","","","object","j","30","true"
"null","<div style=""font-size:60px;"">+</div>","null","html-keyboard-response","306","1077024","0.0-6.0-0.150","MAGA","2","f","rechts","24","","fixation","","","",""
"677","img/0_300.png","70","image-keyboard-response","307","1077703","0.0-6.0-1.150","MAGA","2","f","rechts","24","","","object","f","0","true"
"null","<div style=""font-size:60px;"">+</div>","null","html-keyboard-response","308","1078154","0.0-6.0-0.151","MAGA","2","f","rechts","24","","fixation","","","",""
"1954","img/120_210.png","74","image-keyboard-response","309","1080109","0.0-6.0-1.151","MAGA","2","f","rechts","24","","","object","f","120","false"
"null","<div style=""font-size:60px;"">+</div>","null","html-keyboard-response","310","1080411","0.0-6.0-0.152","MAGA","2","f","rechts","24","","fixation","","","",""
"1332","img/120_270.png","74","image-keyboard-response","311","1081743","0.0-6.0-1.152","MAGA","2","f","rechts","24","","","object","j","120","true"
"null","<div style=""font-size:60px;"">+</div>","null","html-keyboard-response","312","1082045","0.0-6.0-0.153","MAGA","2","f","rechts","24","","fixation","","","",""
"1132","img/L60_180.png","74","image-keyboard-response","313","1083178","0.0-6.0-1.153","MAGA","2","f","rechts","24","","","object","j","60","true"
"null","<div style=""font-size:60px;"">+</div>","null","html-keyboard-response","314","1083480","0.0-6.0-0.154","MAGA","2","f","rechts","24","","fixation","","","",""
"1070","img/60_180.png","70","image-keyboard-response","315","1084551","0.0-6.0-1.154","MAGA","2","f","rechts","24","","","object","f","60","true"
"null","<div style=""font-size:60px;"">+</div>","null","html-keyboard-response","316","1084953","0.0-6.0-0.155","MAGA","2","f","rechts","24","","fixation","","","",""
"665","img/0_330.png","70","image-keyboard-response","317","1085618","0.0-6.0-1.155","MAGA","2","f","rechts","24","","","object","f","0","true"
"null","<div style=""font-size:60px;"">+</div>","null","html-keyboard-response","318","1085920","0.0-6.0-0.156","MAGA","2","f","rechts","24","","fixation","","","",""
"508","img/0_210.png","70","image-keyboard-response","319","1086428","0.0-6.0-1.156","MAGA","2","f","rechts","24","","","object","f","0","true"
"null","<div style=""font-size:60px;"">+</div>","null","html-keyboard-response","320","1086830","0.0-6.0-0.157","MAGA","2","f","rechts","24","","fixation","","","",""
"1165","img/120_150.png","74","image-keyboard-response","321","1087996","0.0-6.0-1.157","MAGA","2","f","rechts","24","","","object","j","120","true"
"null","<div style=""font-size:60px;"">+</div>","null","html-keyboard-response","322","1088298","0.0-6.0-0.158","MAGA","2","f","rechts","24","","fixation","","","",""
"987","img/90_300.png","74","image-keyboard-response","323","1089285","0.0-6.0-1.158","MAGA","2","f","rechts","24","","","object","j","90","true"
"null","<div style=""font-size:60px;"">+</div>","null","html-keyboard-response","324","1089687","0.0-6.0-0.159","MAGA","2","f","rechts","24","","fixation","","","",""
"1499","img/90_210.png","70","image-keyboard-response","325","1091186","0.0-6.0-1.159","MAGA","2","f","rechts","24","","","object","f","90","true"
"null","<div style=""font-size:60px;"">+</div>","null","html-keyboard-response","326","1091538","0.0-6.0-0.160","MAGA","2","f","rechts","24","","fixation","","","",""
"1930","img/60_90.png","74","image-keyboard-response","327","1093468","0.0-6.0-1.160","MAGA","2","f","rechts","24","","","object","j","60","true"
"null","<div style=""font-size:60px;"">+</div>","null","html-keyboard-response","328","1093970","0.0-6.0-0.161","MAGA","2","f","rechts","24","","fixation","","","",""
"1191","img/60_210.png","70","image-keyboard-response","329","1095162","0.0-6.0-1.161","MAGA","2","f","rechts","24","","","object","f","60","true"
"null","<div style=""font-size:60px;"">+</div>","null","html-keyboard-response","330","1095464","0.0-6.0-0.162","MAGA","2","f","rechts","24","","fixation","","","",""
"723","img/30_120.png","74","image-keyboard-response","331","1096188","0.0-6.0-1.162","MAGA","2","f","rechts","24","","","object","j","30","true"
"null","<div style=""font-size:60px;"">+</div>","null","html-keyboard-response","332","1096490","0.0-6.0-0.163","MAGA","2","f","rechts","24","","fixation","","","",""
"1674","img/60_180.png","70","image-keyboard-response","333","1098165","0.0-6.0-1.163","MAGA","2","f","rechts","24","","","object","f","60","true"
"null","<div style=""font-size:60px;"">+</div>","null","html-keyboard-response","334","1098467","0.0-6.0-0.164","MAGA","2","f","rechts","24","","fixation","","","",""
"1099","img/L150_180.png","74","image-keyboard-response","335","1099567","0.0-6.0-1.164","MAGA","2","f","rechts","24","","","object","j","150","true"
"null","<div style=""font-size:60px;"">+</div>","null","html-keyboard-response","336","1100068","0.0-6.0-0.165","MAGA","2","f","rechts","24","","fixation","","","",""
"968","img/90_330.png","74","image-keyboard-response","337","1101036","0.0-6.0-1.165","MAGA","2","f","rechts","24","","","object","j","90","true"
"null","<div style=""font-size:60px;"">+</div>","null","html-keyboard-response","338","1101538","0.0-6.0-0.166","MAGA","2","f","rechts","24","","fixation","","","",""
"1078","img/150_60.png","70","image-keyboard-response","339","1102616","0.0-6.0-1.166","MAGA","2","f","rechts","24","","","object","f","150","true"
"null","<div style=""font-size:60px;"">+</div>","null","html-keyboard-response","340","1103118","0.0-6.0-0.167","MAGA","2","f","rechts","24","","fixation","","","",""
"1639","img/150_120.png","70","image-keyboard-response","341","1104758","0.0-6.0-1.167","MAGA","2","f","rechts","24","","","object","f","150","true"
"null","<div style=""font-size:60px;"">+</div>","null","html-keyboard-response","342","1105210","0.0-6.0-0.168","MAGA","2","f","rechts","24","","fixation","","","",""
"615","img/0_60.png","74","image-keyboard-response","343","1105826","0.0-6.0-1.168","MAGA","2","f","rechts","24","","","object","j","0","true"
"null","<div style=""font-size:60px;"">+</div>","null","html-keyboard-response","344","1106127","0.0-6.0-0.169","MAGA","2","f","rechts","24","","fixation","","","",""
"658","img/0_240.png","70","image-keyboard-response","345","1106786","0.0-6.0-1.169","MAGA","2","f","rechts","24","","","object","f","0","true"
"null","<div style=""font-size:60px;"">+</div>","null","html-keyboard-response","346","1107238","0.0-6.0-0.170","MAGA","2","f","rechts","24","","fixation","","","",""
"1305","img/30_300.png","70","image-keyboard-response","347","1108544","0.0-6.0-1.170","MAGA","2","f","rechts","24","","","object","f","30","true"
"null","<div style=""font-size:60px;"">+</div>","null","html-keyboard-response","348","1108845","0.0-6.0-0.171","MAGA","2","f","rechts","24","","fixation","","","",""
"629","img/0_120.png","74","image-keyboard-response","349","1109474","0.0-6.0-1.171","MAGA","2","f","rechts","24","","","object","j","0","true"
"null","<div style=""font-size:60px;"">+</div>","null","html-keyboard-response","350","1109926","0.0-6.0-0.172","MAGA","2","f","rechts","24","","fixation","","","",""
"1002","img/30_60.png","74","image-keyboard-response","351","1110929","0.0-6.0-1.172","MAGA","2","f","rechts","24","","","object","j","30","true"
"null","<div style=""font-size:60px;"">+</div>","null","html-keyboard-response","352","1111430","0.0-6.0-0.173","MAGA","2","f","rechts","24","","fixation","","","",""
"1173","img/30_90.png","74","image-keyboard-response","353","1112603","0.0-6.0-1.173","MAGA","2","f","rechts","24","","","object","j","30","true"
"null","<div style=""font-size:60px;"">+</div>","null","html-keyboard-response","354","1113105","0.0-6.0-0.174","MAGA","2","f","rechts","24","","fixation","","","",""
"874","img/60_30.png","70","image-keyboard-response","355","1113979","0.0-6.0-1.174","MAGA","2","f","rechts","24","","","object","f","60","true"
"null","<div style=""font-size:60px;"">+</div>","null","html-keyboard-response","356","1114481","0.0-6.0-0.175","MAGA","2","f","rechts","24","","fixation","","","",""
"633","img/0_30.png","74","image-keyboard-response","357","1115116","0.0-6.0-1.175","MAGA","2","f","rechts","24","","","object","j","0","true"
"null","<div style=""font-size:60px;"">+</div>","null","html-keyboard-response","358","1115417","0.0-6.0-0.176","MAGA","2","f","rechts","24","","fixation","","","",""
"1637","img/150_270.png","74","image-keyboard-response","359","1117055","0.0-6.0-1.176","MAGA","2","f","rechts","24","","","object","j","150","true"
"null","<div style=""font-size:60px;"">+</div>","null","html-keyboard-response","360","1117507","0.0-6.0-0.177","MAGA","2","f","rechts","24","","fixation","","","",""
"1397","img/150_240.png","74","image-keyboard-response","361","1118904","0.0-6.0-1.177","MAGA","2","f","rechts","24","","","object","j","150","true"
"null","<div style=""font-size:60px;"">+</div>","null","html-keyboard-response","362","1119356","0.0-6.0-0.178","MAGA","2","f","rechts","24","","fixation","","","",""
"676","img/0_270.png","70","image-keyboard-response","363","1120032","0.0-6.0-1.178","MAGA","2","f","rechts","24","","","object","f","0","true"
"null","<div style=""font-size:60px;"">+</div>","null","html-keyboard-response","364","1120384","0.0-6.0-0.179","MAGA","2","f","rechts","24","","fixation","","","",""
"692","img/60_330.png","74","image-keyboard-response","365","1121078","0.0-6.0-1.179","MAGA","2","f","rechts","24","","","object","j","60","true"
"null","<div style=""font-size:60px;"">+</div>","null","html-keyboard-response","366","1121378","0.0-6.0-0.180","MAGA","2","f","rechts","24","","fixation","","","",""
"1078","img/L60_180.png","74","image-keyboard-response","367","1122457","0.0-6.0-1.180","MAGA","2","f","rechts","24","","","object","j","60","true"
"null","<div style=""font-size:60px;"">+</div>","null","html-keyboard-response","368","1122859","0.0-6.0-0.181","MAGA","2","f","rechts","24","","fixation","","","",""
"889","img/90_180.png","70","image-keyboard-response","369","1123748","0.0-6.0-1.181","MAGA","2","f","rechts","24","","","object","f","90","true"
"null","<div style=""font-size:60px;"">+</div>","null","html-keyboard-response","370","1124250","0.0-6.0-0.182","MAGA","2","f","rechts","24","","fixation","","","",""
"664","img/L30_180.png","74","image-keyboard-response","371","1124915","0.0-6.0-1.182","MAGA","2","f","rechts","24","","","object","j","30","true"
"null","<div style=""font-size:60px;"">+</div>","null","html-keyboard-response","372","1125267","0.0-6.0-0.183","MAGA","2","f","rechts","24","","fixation","","","",""
"1975","img/90_240.png","70","image-keyboard-response","373","1127244","0.0-6.0-1.183","MAGA","2","f","rechts","24","","","object","f","90","true"
"null","<div style=""font-size:60px;"">+</div>","null","html-keyboard-response","374","1127745","0.0-6.0-0.184","MAGA","2","f","rechts","24","","fixation","","","",""
"577","img/0_150.png","74","image-keyboard-response","375","1128323","0.0-6.0-1.184","MAGA","2","f","rechts","24","","","object","j","0","true"
"null","<div style=""font-size:60px;"">+</div>","null","html-keyboard-response","376","1128675","0.0-6.0-0.185","MAGA","2","f","rechts","24","","fixation","","","",""
"1067","img/90_120.png","74","image-keyboard-response","377","1129744","0.0-6.0-1.185","MAGA","2","f","rechts","24","","","object","j","90","true"
"null","<div style=""font-size:60px;"">+</div>","null","html-keyboard-response","378","1130245","0.0-6.0-0.186","MAGA","2","f","rechts","24","","fixation","","","",""
"1066","img/120_90.png","70","image-keyboard-response","379","1131312","0.0-6.0-1.186","MAGA","2","f","rechts","24","","","object","f","120","true"
"null","<div style=""font-size:60px;"">+</div>","null","html-keyboard-response","380","1131614","0.0-6.0-0.187","MAGA","2","f","rechts","24","","fixation","","","",""
"1789","img/60_270.png","70","image-keyboard-response","381","1133404","0.0-6.0-1.187","MAGA","2","f","rechts","24","","","object","f","60","true"
"null","<div style=""font-size:60px;"">+</div>","null","html-keyboard-response","382","1133905","0.0-6.0-0.188","MAGA","2","f","rechts","24","","fixation","","","",""
"921","img/90_150.png","74","image-keyboard-response","383","1134827","0.0-6.0-1.188","MAGA","2","f","rechts","24","","","object","j","90","true"
"null","<div style=""font-size:60px;"">+</div>","null","html-keyboard-response","384","1135329","0.0-6.0-0.189","MAGA","2","f","rechts","24","","fixation","","","",""
"1469","img/150_180.png","70","image-keyboard-response","385","1136799","0.0-6.0-1.189","MAGA","2","f","rechts","24","","","object","f","150","true"
"null","<div style=""font-size:60px;"">+</div>","null","html-keyboard-response","386","1137101","0.0-6.0-0.190","MAGA","2","f","rechts","24","","fixation","","","",""
"641","img/0_90.png","74","image-keyboard-response","387","1137743","0.0-6.0-1.190","MAGA","2","f","rechts","24","","","object","j","0","true"
"null","<div style=""font-size:60px;"">+</div>","null","html-keyboard-response","388","1138195","0.0-6.0-0.191","MAGA","2","f","rechts","24","","fixation","","","",""
"917","img/60_150.png","74","image-keyboard-response","389","1139113","0.0-6.0-1.191","MAGA","2","f","rechts","24","","","object","j","60","true"
"null","<div style=""font-size:60px;"">+</div>","null","html-keyboard-response","390","1139615","0.0-6.0-0.192","MAGA","2","f","rechts","24","","fixation","","","",""
"1384","img/150_90.png","70","image-keyboard-response","391","1141000","0.0-6.0-1.192","MAGA","2","f","rechts","24","","","object","f","150","true"
"null","<div style=""font-size:60px;"">+</div>","null","html-keyboard-response","392","1141402","0.0-6.0-0.193","MAGA","2","f","rechts","24","","fixation","","","",""
"1409","img/90_60.png","70","image-keyboard-response","393","1142812","0.0-6.0-1.193","MAGA","2","f","rechts","24","","","object","f","90","true"
"null","<div style=""font-size:60px;"">+</div>","null","html-keyboard-response","394","1143314","0.0-6.0-0.194","MAGA","2","f","rechts","24","","fixation","","","",""
"1579","img/30_180.png","70","image-keyboard-response","395","1144894","0.0-6.0-1.194","MAGA","2","f","rechts","24","","","object","f","30","true"
"null","<div style=""font-size:60px;"">+</div>","null","html-keyboard-response","396","1145246","0.0-6.0-0.195","MAGA","2","f","rechts","24","","fixation","","","",""
"1062","img/120_270.png","74","image-keyboard-response","397","1146309","0.0-6.0-1.195","MAGA","2","f","rechts","24","","","object","j","120","true"
"null","<div style=""font-size:60px;"">+</div>","null","html-keyboard-response","398","1146660","0.0-6.0-0.196","MAGA","2","f","rechts","24","","fixation","","","",""
"688","img/0_300.png","70","image-keyboard-response","399","1147349","0.0-6.0-1.196","MAGA","2","f","rechts","24","","","object","f","0","true"
"null","<div style=""font-size:60px;"">+</div>","null","html-keyboard-response","400","1147851","0.0-6.0-0.197","MAGA","2","f","rechts","24","","fixation","","","",""
"846","img/90_30.png","70","image-keyboard-response","401","1148698","0.0-6.0-1.197","MAGA","2","f","rechts","24","","","object","f","90","true"
"null","<div style=""font-size:60px;"">+</div>","null","html-keyboard-response","402","1149000","0.0-6.0-0.198","MAGA","2","f","rechts","24","","fixation","","","",""
"761","img/0_330.png","70","image-keyboard-response","403","1149762","0.0-6.0-1.198","MAGA","2","f","rechts","24","","","object","f","0","true"
"null","<div style=""font-size:60px;"">+</div>","null","html-keyboard-response","404","1150214","0.0-6.0-0.199","MAGA","2","f","rechts","24","","fixation","","","",""
"2115","img/120_210.png","70","image-keyboard-response","405","1152329","0.0-6.0-1.199","MAGA","2","f","rechts","24","","","object","f","120","true"
"null","<div style=""font-size:60px;"">+</div>","null","html-keyboard-response","406","1152781","0.0-6.0-0.200","MAGA","2","f","rechts","24","","fixation","","","",""
"990","img/120_30.png","70","image-keyboard-response","407","1153772","0.0-6.0-1.200","MAGA","2","f","rechts","24","","","object","f","120","true"
"null","<div style=""font-size:60px;"">+</div>","null","html-keyboard-response","408","1154074","0.0-6.0-0.201","MAGA","2","f","rechts","24","","fixation","","","",""
"718","img/30_270.png","74","image-keyboard-response","409","1154793","0.0-6.0-1.201","MAGA","2","f","rechts","24","","","object","f","30","false"
"null","<div style=""font-size:60px;"">+</div>","null","html-keyboard-response","410","1155195","0.0-6.0-0.202","MAGA","2","f","rechts","24","","fixation","","","",""
"1506","img/L120_180.png","74","image-keyboard-response","411","1156701","0.0-6.0-1.202","MAGA","2","f","rechts","24","","","object","j","120","true"
"null","<div style=""font-size:60px;"">+</div>","null","html-keyboard-response","412","1157003","0.0-6.0-0.203","MAGA","2","f","rechts","24","","fixation","","","",""
"1378","img/150_300.png","70","image-keyboard-response","413","1158381","0.0-6.0-1.203","MAGA","2","f","rechts","24","","","object","j","150","false"
"null","<div style=""font-size:60px;"">+</div>","null","html-keyboard-response","414","1158732","0.0-6.0-0.204","MAGA","2","f","rechts","24","","fixation","","","",""
"834","img/120_330.png","74","image-keyboard-response","415","1159567","0.0-6.0-1.204","MAGA","2","f","rechts","24","","","object","j","120","true"
"null","<div style=""font-size:60px;"">+</div>","null","html-keyboard-response","416","1159969","0.0-6.0-0.205","MAGA","2","f","rechts","24","","fixation","","","",""
"1450","img/30_240.png","70","image-keyboard-response","417","1161419","0.0-6.0-1.205","MAGA","2","f","rechts","24","","","object","f","30","true"
"null","<div style=""font-size:60px;"">+</div>","null","html-keyboard-response","418","1161870","0.0-6.0-0.206","MAGA","2","f","rechts","24","","fixation","","","",""
"871","img/L90_180.png","74","image-keyboard-response","419","1162742","0.0-6.0-1.206","MAGA","2","f","rechts","24","","","object","j","90","true"
"null","<div style=""font-size:60px;"">+</div>","null","html-keyboard-response","420","1163094","0.0-6.0-0.207","MAGA","2","f","rechts","24","","fixation","","","",""
"1341","img/120_180.png","70","image-keyboard-response","421","1164436","0.0-6.0-1.207","MAGA","2","f","rechts","24","","","object","f","120","true"
"8346","<p>Du hast in 91% der Versuche korrekt entschieden.</p><p>Deine durchschnittliche Reaktionszeit war  1069ms.</p><p>Dr&uuml;cke eine beliebige Taste, um die Session zu beenden. Vielen Dank!</p>","75","html-keyboard-response","422","1172783","0.0-7.0","MAGA","2","f","rechts","24","","","","","",""
