"rt","stimulus","key_press","trial_type","trial_index","time_elapsed","internal_node_id","subject","session","sex","handedness","age","responses","test_part","condition","correct_response","angle","correct"
"6982","<p>Mental Rotation Experiment.</p> <p>Dr&uuml;cke eine beliebige Taste, um anzufangen.</p>","71","html-keyboard-response","0","6986","0.0-0.0","MAGA","1","f","rechts","24","","","","","",""
"4097","","","survey-text","1","11084","0.0-1.0","MAGA","1","f","rechts","24","{""Q0"":""MAGA""}","","","","",""
"1742","","","survey-text","2","12828","0.0-2.0","MAGA","1","f","rechts","24","{""Q0"":""1""}","","","","",""
"3546","","","survey-multi-choice","3","16376","0.0-3.0","MAGA","1","f","rechts","24","{""Q0"":""f"",""Q1"":""rechts""}","","","","",""
"2042","","","survey-text","4","18419","0.0-4.0","MAGA","1","f","rechts","24","{""Q0"":""24""}","","","","",""
"20659","<p>Stell dir vor, dass du vor einem runden Tisch stehst, auf dem sich ein blauer Ball am Tischrand befindet. Entlang des Tischrands ist jeweils ein verschieden langer Pfeil. Nun bleibst du an deinem Platz vor dem Tisch und rotierst den Tisch entlang des Pfeils (gleiche Richtung und Länge). </p> <img src='img/30_180.png'></img> <br><p> Nachdem du diese (vorgestellte) Rotation durchgef&uuml;hrt hast, schau in Richtung der Tischmitte, und entscheide dann, ob der Ball links oder rechts von dir liegt.</p> <p>Dr&uuml;cke die <strong>'f'</strong>-Taste f&uuml;r links, die <strong>'j'</strong>-Taste f&uuml;r rechts.</p><br><p> Das Bild wird jeweils 1 Sekunde lang pr&auml;sentiert. Du hast 3 Sekunden Zeit eine Entscheidung zu treffen.</p>","74","html-keyboard-response","5","39079","0.0-5.0","MAGA","1","f","rechts","24","","","","","",""
"null","<div style=""font-size:60px;"">+</div>","null","html-keyboard-response","6","40433","0.0-6.0-0.0","MAGA","1","f","rechts","24","","fixation","","","",""
"1505","img/150_90.png","70","image-keyboard-response","7","41941","0.0-6.0-1.0","MAGA","1","f","rechts","24","","","object","f","150","true"
"null","<div style=""font-size:60px;"">+</div>","null","html-keyboard-response","8","42343","0.0-6.0-0.1","MAGA","1","f","rechts","24","","fixation","","","",""
"1201","img/30_240.png","70","image-keyboard-response","9","43544","0.0-6.0-1.1","MAGA","1","f","rechts","24","","","object","f","30","true"
"null","<div style=""font-size:60px;"">+</div>","null","html-keyboard-response","10","44044","0.0-6.0-0.2","MAGA","1","f","rechts","24","","fixation","","","",""
"1087","img/60_270.png","70","image-keyboard-response","11","45134","0.0-6.0-1.2","MAGA","1","f","rechts","24","","","object","f","60","true"
"null","<div style=""font-size:60px;"">+</div>","null","html-keyboard-response","12","45535","0.0-6.0-0.3","MAGA","1","f","rechts","24","","fixation","","","",""
"1265","img/120_150.png","74","image-keyboard-response","13","46801","0.0-6.0-1.3","MAGA","1","f","rechts","24","","","object","j","120","true"
"null","<div style=""font-size:60px;"">+</div>","null","html-keyboard-response","14","47303","0.0-6.0-0.4","MAGA","1","f","rechts","24","","fixation","","","",""
"1021","img/90_30.png","70","image-keyboard-response","15","48325","0.0-6.0-1.4","MAGA","1","f","rechts","24","","","object","f","90","true"
"null","<div style=""font-size:60px;"">+</div>","null","html-keyboard-response","16","48627","0.0-6.0-0.5","MAGA","1","f","rechts","24","","fixation","","","",""
"1626","img/60_180.png","70","image-keyboard-response","17","50254","0.0-6.0-1.5","MAGA","1","f","rechts","24","","","object","f","60","true"
"null","<div style=""font-size:60px;"">+</div>","null","html-keyboard-response","18","50756","0.0-6.0-0.6","MAGA","1","f","rechts","24","","fixation","","","",""
"1274","img/90_180.png","70","image-keyboard-response","19","52032","0.0-6.0-1.6","MAGA","1","f","rechts","24","","","object","f","90","true"
"null","<div style=""font-size:60px;"">+</div>","null","html-keyboard-response","20","52333","0.0-6.0-0.7","MAGA","1","f","rechts","24","","fixation","","","",""
"1067","img/150_60.png","74","image-keyboard-response","21","53401","0.0-6.0-1.7","MAGA","1","f","rechts","24","","","object","f","150","false"
"null","<div style=""font-size:60px;"">+</div>","null","html-keyboard-response","22","53903","0.0-6.0-0.8","MAGA","1","f","rechts","24","","fixation","","","",""
"1631","img/L90_180.png","74","image-keyboard-response","23","55536","0.0-6.0-1.8","MAGA","1","f","rechts","24","","","object","j","90","true"
"null","<div style=""font-size:60px;"">+</div>","null","html-keyboard-response","24","55837","0.0-6.0-0.9","MAGA","1","f","rechts","24","","fixation","","","",""
"1246","img/30_180.png","70","image-keyboard-response","25","57085","0.0-6.0-1.9","MAGA","1","f","rechts","24","","","object","f","30","true"
"null","<div style=""font-size:60px;"">+</div>","null","html-keyboard-response","26","57436","0.0-6.0-0.10","MAGA","1","f","rechts","24","","fixation","","","",""
"1767","img/60_30.png","74","image-keyboard-response","27","59205","0.0-6.0-1.10","MAGA","1","f","rechts","24","","","object","f","60","false"
"null","<div style=""font-size:60px;"">+</div>","null","html-keyboard-response","28","59506","0.0-6.0-0.11","MAGA","1","f","rechts","24","","fixation","","","",""
"1067","img/0_210.png","70","image-keyboard-response","29","60574","0.0-6.0-1.11","MAGA","1","f","rechts","24","","","object","f","0","true"
"null","<div style=""font-size:60px;"">+</div>","null","html-keyboard-response","30","61026","0.0-6.0-0.12","MAGA","1","f","rechts","24","","fixation","","","",""
"653","img/0_30.png","74","image-keyboard-response","31","61681","0.0-6.0-1.12","MAGA","1","f","rechts","24","","","object","j","0","true"
"null","<div style=""font-size:60px;"">+</div>","null","html-keyboard-response","32","62132","0.0-6.0-0.13","MAGA","1","f","rechts","24","","fixation","","","",""
"1482","img/90_300.png","70","image-keyboard-response","33","63615","0.0-6.0-1.13","MAGA","1","f","rechts","24","","","object","j","90","false"
"null","<div style=""font-size:60px;"">+</div>","null","html-keyboard-response","34","64067","0.0-6.0-0.14","MAGA","1","f","rechts","24","","fixation","","","",""
"1607","img/90_60.png","70","image-keyboard-response","35","65677","0.0-6.0-1.14","MAGA","1","f","rechts","24","","","object","f","90","true"
"null","<div style=""font-size:60px;"">+</div>","null","html-keyboard-response","36","66128","0.0-6.0-0.15","MAGA","1","f","rechts","24","","fixation","","","",""
"1163","img/0_90.png","74","image-keyboard-response","37","67293","0.0-6.0-1.15","MAGA","1","f","rechts","24","","","object","j","0","true"
"null","<div style=""font-size:60px;"">+</div>","null","html-keyboard-response","38","67795","0.0-6.0-0.16","MAGA","1","f","rechts","24","","fixation","","","",""
"762","img/0_240.png","70","image-keyboard-response","39","68558","0.0-6.0-1.16","MAGA","1","f","rechts","24","","","object","f","0","true"
"null","<div style=""font-size:60px;"">+</div>","null","html-keyboard-response","40","69010","0.0-6.0-0.17","MAGA","1","f","rechts","24","","fixation","","","",""
"1306","img/90_210.png","70","image-keyboard-response","41","70317","0.0-6.0-1.17","MAGA","1","f","rechts","24","","","object","f","90","true"
"null","<div style=""font-size:60px;"">+</div>","null","html-keyboard-response","42","70669","0.0-6.0-0.18","MAGA","1","f","rechts","24","","fixation","","","",""
"1117","img/120_30.png","70","image-keyboard-response","43","71787","0.0-6.0-1.18","MAGA","1","f","rechts","24","","","object","f","120","true"
"null","<div style=""font-size:60px;"">+</div>","null","html-keyboard-response","44","72189","0.0-6.0-0.19","MAGA","1","f","rechts","24","","fixation","","","",""
"1361","img/30_120.png","74","image-keyboard-response","45","73551","0.0-6.0-1.19","MAGA","1","f","rechts","24","","","object","j","30","true"
"null","<div style=""font-size:60px;"">+</div>","null","html-keyboard-response","46","74053","0.0-6.0-0.20","MAGA","1","f","rechts","24","","fixation","","","",""
"1299","img/L120_180.png","74","image-keyboard-response","47","75353","0.0-6.0-1.20","MAGA","1","f","rechts","24","","","object","j","120","true"
"null","<div style=""font-size:60px;"">+</div>","null","html-keyboard-response","48","75755","0.0-6.0-0.21","MAGA","1","f","rechts","24","","fixation","","","",""
"1374","img/60_210.png","74","image-keyboard-response","49","77130","0.0-6.0-1.21","MAGA","1","f","rechts","24","","","object","f","60","false"
"null","<div style=""font-size:60px;"">+</div>","null","html-keyboard-response","50","77632","0.0-6.0-0.22","MAGA","1","f","rechts","24","","fixation","","","",""
"1599","img/120_180.png","74","image-keyboard-response","51","79232","0.0-6.0-1.22","MAGA","1","f","rechts","24","","","object","f","120","false"
"null","<div style=""font-size:60px;"">+</div>","null","html-keyboard-response","52","79734","0.0-6.0-0.23","MAGA","1","f","rechts","24","","fixation","","","",""
"1166","img/150_180.png","70","image-keyboard-response","53","80901","0.0-6.0-1.23","MAGA","1","f","rechts","24","","","object","f","150","true"
"null","<div style=""font-size:60px;"">+</div>","null","html-keyboard-response","54","81303","0.0-6.0-0.24","MAGA","1","f","rechts","24","","fixation","","","",""
"1375","img/150_240.png","70","image-keyboard-response","55","82679","0.0-6.0-1.24","MAGA","1","f","rechts","24","","","object","j","150","false"
"null","<div style=""font-size:60px;"">+</div>","null","html-keyboard-response","56","83181","0.0-6.0-0.25","MAGA","1","f","rechts","24","","fixation","","","",""
"1136","img/90_150.png","74","image-keyboard-response","57","84318","0.0-6.0-1.25","MAGA","1","f","rechts","24","","","object","j","90","true"
"null","<div style=""font-size:60px;"">+</div>","null","html-keyboard-response","58","84620","0.0-6.0-0.26","MAGA","1","f","rechts","24","","fixation","","","",""
"1718","img/30_270.png","70","image-keyboard-response","59","86339","0.0-6.0-1.26","MAGA","1","f","rechts","24","","","object","f","30","true"
"null","<div style=""font-size:60px;"">+</div>","null","html-keyboard-response","60","86790","0.0-6.0-0.27","MAGA","1","f","rechts","24","","fixation","","","",""
"989","img/30_60.png","74","image-keyboard-response","61","87781","0.0-6.0-1.27","MAGA","1","f","rechts","24","","","object","j","30","true"
"null","<div style=""font-size:60px;"">+</div>","null","html-keyboard-response","62","88182","0.0-6.0-0.28","MAGA","1","f","rechts","24","","fixation","","","",""
"1812","img/150_300.png","74","image-keyboard-response","63","89995","0.0-6.0-1.28","MAGA","1","f","rechts","24","","","object","j","150","true"
"null","<div style=""font-size:60px;"">+</div>","null","html-keyboard-response","64","90396","0.0-6.0-0.29","MAGA","1","f","rechts","24","","fixation","","","",""
"877","img/0_60.png","74","image-keyboard-response","65","91274","0.0-6.0-1.29","MAGA","1","f","rechts","24","","","object","j","0","true"
"null","<div style=""font-size:60px;"">+</div>","null","html-keyboard-response","66","91626","0.0-6.0-0.30","MAGA","1","f","rechts","24","","fixation","","","",""
"1212","img/L30_180.png","70","image-keyboard-response","67","92839","0.0-6.0-1.30","MAGA","1","f","rechts","24","","","object","j","30","false"
"null","<div style=""font-size:60px;"">+</div>","null","html-keyboard-response","68","93341","0.0-6.0-0.31","MAGA","1","f","rechts","24","","fixation","","","",""
"1364","img/150_120.png","74","image-keyboard-response","69","94706","0.0-6.0-1.31","MAGA","1","f","rechts","24","","","object","f","150","false"
"null","<div style=""font-size:60px;"">+</div>","null","html-keyboard-response","70","95008","0.0-6.0-0.32","MAGA","1","f","rechts","24","","fixation","","","",""
"1812","img/90_240.png","70","image-keyboard-response","71","96821","0.0-6.0-1.32","MAGA","1","f","rechts","24","","","object","f","90","true"
"null","<div style=""font-size:60px;"">+</div>","null","html-keyboard-response","72","97323","0.0-6.0-0.33","MAGA","1","f","rechts","24","","fixation","","","",""
"995","img/0_120.png","74","image-keyboard-response","73","98319","0.0-6.0-1.33","MAGA","1","f","rechts","24","","","object","j","0","true"
"null","<div style=""font-size:60px;"">+</div>","null","html-keyboard-response","74","98621","0.0-6.0-0.34","MAGA","1","f","rechts","24","","fixation","","","",""
"627","img/0_150.png","74","image-keyboard-response","75","99249","0.0-6.0-1.34","MAGA","1","f","rechts","24","","","object","j","0","true"
"null","<div style=""font-size:60px;"">+</div>","null","html-keyboard-response","76","99701","0.0-6.0-0.35","MAGA","1","f","rechts","24","","fixation","","","",""
"1064","img/60_150.png","74","image-keyboard-response","77","100766","0.0-6.0-1.35","MAGA","1","f","rechts","24","","","object","j","60","true"
"null","<div style=""font-size:60px;"">+</div>","null","html-keyboard-response","78","101217","0.0-6.0-0.36","MAGA","1","f","rechts","24","","fixation","","","",""
"1932","img/90_330.png","70","image-keyboard-response","79","103150","0.0-6.0-1.36","MAGA","1","f","rechts","24","","","object","j","90","false"
"null","<div style=""font-size:60px;"">+</div>","null","html-keyboard-response","80","103552","0.0-6.0-0.37","MAGA","1","f","rechts","24","","fixation","","","",""
"838","img/0_330.png","70","image-keyboard-response","81","104392","0.0-6.0-1.37","MAGA","1","f","rechts","24","","","object","f","0","true"
"null","<div style=""font-size:60px;"">+</div>","null","html-keyboard-response","82","104793","0.0-6.0-0.38","MAGA","1","f","rechts","24","","fixation","","","",""
"1886","img/90_120.png","74","image-keyboard-response","83","106681","0.0-6.0-1.38","MAGA","1","f","rechts","24","","","object","j","90","true"
"null","<div style=""font-size:60px;"">+</div>","null","html-keyboard-response","84","106982","0.0-6.0-0.39","MAGA","1","f","rechts","24","","fixation","","","",""
"1645","img/60_90.png","74","image-keyboard-response","85","108629","0.0-6.0-1.39","MAGA","1","f","rechts","24","","","object","j","60","true"
"null","<div style=""font-size:60px;"">+</div>","null","html-keyboard-response","86","109079","0.0-6.0-0.40","MAGA","1","f","rechts","24","","fixation","","","",""
"1801","img/30_300.png","70","image-keyboard-response","87","110883","0.0-6.0-1.40","MAGA","1","f","rechts","24","","","object","f","30","true"
"null","<div style=""font-size:60px;"">+</div>","null","html-keyboard-response","88","111184","0.0-6.0-0.41","MAGA","1","f","rechts","24","","fixation","","","",""
"851","img/60_330.png","74","image-keyboard-response","89","112038","0.0-6.0-1.41","MAGA","1","f","rechts","24","","","object","j","60","true"
"null","<div style=""font-size:60px;"">+</div>","null","html-keyboard-response","90","112339","0.0-6.0-0.42","MAGA","1","f","rechts","24","","fixation","","","",""
"1269","img/L60_180.png","74","image-keyboard-response","91","113609","0.0-6.0-1.42","MAGA","1","f","rechts","24","","","object","j","60","true"
"null","<div style=""font-size:60px;"">+</div>","null","html-keyboard-response","92","113911","0.0-6.0-0.43","MAGA","1","f","rechts","24","","fixation","","","",""
"2116","img/120_270.png","74","image-keyboard-response","93","116029","0.0-6.0-1.43","MAGA","1","f","rechts","24","","","object","j","120","true"
"null","<div style=""font-size:60px;"">+</div>","null","html-keyboard-response","94","116330","0.0-6.0-0.44","MAGA","1","f","rechts","24","","fixation","","","",""
"905","img/0_270.png","70","image-keyboard-response","95","117236","0.0-6.0-1.44","MAGA","1","f","rechts","24","","","object","f","0","true"
"null","<div style=""font-size:60px;"">+</div>","null","html-keyboard-response","96","117738","0.0-6.0-0.45","MAGA","1","f","rechts","24","","fixation","","","",""
"1967","img/L150_180.png","70","image-keyboard-response","97","119706","0.0-6.0-1.45","MAGA","1","f","rechts","24","","","object","j","150","false"
"null","<div style=""font-size:60px;"">+</div>","null","html-keyboard-response","98","120208","0.0-6.0-0.46","MAGA","1","f","rechts","24","","fixation","","","",""
"2575","img/120_210.png","74","image-keyboard-response","99","122784","0.0-6.0-1.46","MAGA","1","f","rechts","24","","","object","f","120","false"
"null","<div style=""font-size:60px;"">+</div>","null","html-keyboard-response","100","123186","0.0-6.0-0.47","MAGA","1","f","rechts","24","","fixation","","","",""
"783","img/0_300.png","70","image-keyboard-response","101","123970","0.0-6.0-1.47","MAGA","1","f","rechts","24","","","object","f","0","true"
"null","<div style=""font-size:60px;"">+</div>","null","html-keyboard-response","102","124322","0.0-6.0-0.48","MAGA","1","f","rechts","24","","fixation","","","",""
"827","img/30_90.png","74","image-keyboard-response","103","125150","0.0-6.0-1.48","MAGA","1","f","rechts","24","","","object","j","30","true"
"null","<div style=""font-size:60px;"">+</div>","null","html-keyboard-response","104","125452","0.0-6.0-0.49","MAGA","1","f","rechts","24","","fixation","","","",""
"1263","img/120_330.png","74","image-keyboard-response","105","126716","0.0-6.0-1.49","MAGA","1","f","rechts","24","","","object","j","120","true"
"null","<div style=""font-size:60px;"">+</div>","null","html-keyboard-response","106","127168","0.0-6.0-0.50","MAGA","1","f","rechts","24","","fixation","","","",""
"1825","img/150_270.png","74","image-keyboard-response","107","128994","0.0-6.0-1.50","MAGA","1","f","rechts","24","","","object","j","150","true"
"null","<div style=""font-size:60px;"">+</div>","null","html-keyboard-response","108","129496","0.0-6.0-0.51","MAGA","1","f","rechts","24","","fixation","","","",""
"1729","img/120_90.png","70","image-keyboard-response","109","131226","0.0-6.0-1.51","MAGA","1","f","rechts","24","","","object","f","120","true"
"null","<div style=""font-size:60px;"">+</div>","null","html-keyboard-response","110","131678","0.0-6.0-0.52","MAGA","1","f","rechts","24","","fixation","","","",""
"1837","img/90_240.png","70","image-keyboard-response","111","133515","0.0-6.0-1.52","MAGA","1","f","rechts","24","","","object","f","90","true"
"null","<div style=""font-size:60px;"">+</div>","null","html-keyboard-response","112","133867","0.0-6.0-0.53","MAGA","1","f","rechts","24","","fixation","","","",""
"1729","img/120_90.png","74","image-keyboard-response","113","135596","0.0-6.0-1.53","MAGA","1","f","rechts","24","","","object","f","120","false"
"null","<div style=""font-size:60px;"">+</div>","null","html-keyboard-response","114","136048","0.0-6.0-0.54","MAGA","1","f","rechts","24","","fixation","","","",""
"1706","img/150_120.png","70","image-keyboard-response","115","137755","0.0-6.0-1.54","MAGA","1","f","rechts","24","","","object","f","150","true"
"null","<div style=""font-size:60px;"">+</div>","null","html-keyboard-response","116","138257","0.0-6.0-0.55","MAGA","1","f","rechts","24","","fixation","","","",""
"2085","img/60_270.png","70","image-keyboard-response","117","140342","0.0-6.0-1.55","MAGA","1","f","rechts","24","","","object","f","60","true"
"null","<div style=""font-size:60px;"">+</div>","null","html-keyboard-response","118","140744","0.0-6.0-0.56","MAGA","1","f","rechts","24","","fixation","","","",""
"1564","img/120_180.png","70","image-keyboard-response","119","142308","0.0-6.0-1.56","MAGA","1","f","rechts","24","","","object","f","120","true"
"null","<div style=""font-size:60px;"">+</div>","null","html-keyboard-response","120","142660","0.0-6.0-0.57","MAGA","1","f","rechts","24","","fixation","","","",""
"1367","img/150_90.png","74","image-keyboard-response","121","144027","0.0-6.0-1.57","MAGA","1","f","rechts","24","","","object","f","150","false"
"null","<div style=""font-size:60px;"">+</div>","null","html-keyboard-response","122","144529","0.0-6.0-0.58","MAGA","1","f","rechts","24","","fixation","","","",""
"850","img/150_60.png","70","image-keyboard-response","123","145379","0.0-6.0-1.58","MAGA","1","f","rechts","24","","","object","f","150","true"
"null","<div style=""font-size:60px;"">+</div>","null","html-keyboard-response","124","145680","0.0-6.0-0.59","MAGA","1","f","rechts","24","","fixation","","","",""
"1018","img/0_270.png","70","image-keyboard-response","125","146699","0.0-6.0-1.59","MAGA","1","f","rechts","24","","","object","f","0","true"
"null","<div style=""font-size:60px;"">+</div>","null","html-keyboard-response","126","147201","0.0-6.0-0.60","MAGA","1","f","rechts","24","","fixation","","","",""
"1564","img/120_210.png","74","image-keyboard-response","127","148765","0.0-6.0-1.60","MAGA","1","f","rechts","24","","","object","f","120","false"
"null","<div style=""font-size:60px;"">+</div>","null","html-keyboard-response","128","149066","0.0-6.0-0.61","MAGA","1","f","rechts","24","","fixation","","","",""
"653","img/0_210.png","70","image-keyboard-response","129","149721","0.0-6.0-1.61","MAGA","1","f","rechts","24","","","object","f","0","true"
"null","<div style=""font-size:60px;"">+</div>","null","html-keyboard-response","130","150222","0.0-6.0-0.62","MAGA","1","f","rechts","24","","fixation","","","",""
"1393","img/L30_180.png","74","image-keyboard-response","131","151616","0.0-6.0-1.62","MAGA","1","f","rechts","24","","","object","j","30","true"
"null","<div style=""font-size:60px;"">+</div>","null","html-keyboard-response","132","152066","0.0-6.0-0.63","MAGA","1","f","rechts","24","","fixation","","","",""
"1492","img/120_330.png","74","image-keyboard-response","133","153559","0.0-6.0-1.63","MAGA","1","f","rechts","24","","","object","j","120","true"
"null","<div style=""font-size:60px;"">+</div>","null","html-keyboard-response","134","154011","0.0-6.0-0.64","MAGA","1","f","rechts","24","","fixation","","","",""
"1963","img/60_90.png","74","image-keyboard-response","135","155975","0.0-6.0-1.64","MAGA","1","f","rechts","24","","","object","j","60","true"
"null","<div style=""font-size:60px;"">+</div>","null","html-keyboard-response","136","156377","0.0-6.0-0.65","MAGA","1","f","rechts","24","","fixation","","","",""
"1662","img/120_150.png","74","image-keyboard-response","137","158040","0.0-6.0-1.65","MAGA","1","f","rechts","24","","","object","j","120","true"
"null","<div style=""font-size:60px;"">+</div>","null","html-keyboard-response","138","158541","0.0-6.0-0.66","MAGA","1","f","rechts","24","","fixation","","","",""
"2016","img/150_180.png","70","image-keyboard-response","139","160559","0.0-6.0-1.66","MAGA","1","f","rechts","24","","","object","f","150","true"
"null","<div style=""font-size:60px;"">+</div>","null","html-keyboard-response","140","161060","0.0-6.0-0.67","MAGA","1","f","rechts","24","","fixation","","","",""
"2309","img/60_30.png","70","image-keyboard-response","141","163370","0.0-6.0-1.67","MAGA","1","f","rechts","24","","","object","f","60","true"
"null","<div style=""font-size:60px;"">+</div>","null","html-keyboard-response","142","163872","0.0-6.0-0.68","MAGA","1","f","rechts","24","","fixation","","","",""
"2141","img/120_270.png","74","image-keyboard-response","143","166014","0.0-6.0-1.68","MAGA","1","f","rechts","24","","","object","j","120","true"
"null","<div style=""font-size:60px;"">+</div>","null","html-keyboard-response","144","166366","0.0-6.0-0.69","MAGA","1","f","rechts","24","","fixation","","","",""
"829","img/0_150.png","74","image-keyboard-response","145","167196","0.0-6.0-1.69","MAGA","1","f","rechts","24","","","object","j","0","true"
"null","<div style=""font-size:60px;"">+</div>","null","html-keyboard-response","146","167548","0.0-6.0-0.70","MAGA","1","f","rechts","24","","fixation","","","",""
"821","img/0_330.png","74","image-keyboard-response","147","168370","0.0-6.0-1.70","MAGA","1","f","rechts","24","","","object","f","0","false"
"null","<div style=""font-size:60px;"">+</div>","null","html-keyboard-response","148","168872","0.0-6.0-0.71","MAGA","1","f","rechts","24","","fixation","","","",""
"620","img/0_30.png","74","image-keyboard-response","149","169493","0.0-6.0-1.71","MAGA","1","f","rechts","24","","","object","j","0","true"
"null","<div style=""font-size:60px;"">+</div>","null","html-keyboard-response","150","169895","0.0-6.0-0.72","MAGA","1","f","rechts","24","","fixation","","","",""
"2101","img/L120_180.png","74","image-keyboard-response","151","171997","0.0-6.0-1.72","MAGA","1","f","rechts","24","","","object","j","120","true"
"null","<div style=""font-size:60px;"">+</div>","null","html-keyboard-response","152","172399","0.0-6.0-0.73","MAGA","1","f","rechts","24","","fixation","","","",""
"1585","img/150_300.png","74","image-keyboard-response","153","173985","0.0-6.0-1.73","MAGA","1","f","rechts","24","","","object","j","150","true"
"null","<div style=""font-size:60px;"">+</div>","null","html-keyboard-response","154","174337","0.0-6.0-0.74","MAGA","1","f","rechts","24","","fixation","","","",""
"1877","img/30_60.png","74","image-keyboard-response","155","176214","0.0-6.0-1.74","MAGA","1","f","rechts","24","","","object","j","30","true"
"null","<div style=""font-size:60px;"">+</div>","null","html-keyboard-response","156","176566","0.0-6.0-0.75","MAGA","1","f","rechts","24","","fixation","","","",""
"1443","img/30_180.png","70","image-keyboard-response","157","178010","0.0-6.0-1.75","MAGA","1","f","rechts","24","","","object","f","30","true"
"null","<div style=""font-size:60px;"">+</div>","null","html-keyboard-response","158","178362","0.0-6.0-0.76","MAGA","1","f","rechts","24","","fixation","","","",""
"1391","img/90_300.png","74","image-keyboard-response","159","179754","0.0-6.0-1.76","MAGA","1","f","rechts","24","","","object","j","90","true"
"null","<div style=""font-size:60px;"">+</div>","null","html-keyboard-response","160","180106","0.0-6.0-0.77","MAGA","1","f","rechts","24","","fixation","","","",""
"1598","img/120_30.png","70","image-keyboard-response","161","181704","0.0-6.0-1.77","MAGA","1","f","rechts","24","","","object","f","120","true"
"null","<div style=""font-size:60px;"">+</div>","null","html-keyboard-response","162","182006","0.0-6.0-0.78","MAGA","1","f","rechts","24","","fixation","","","",""
"1636","img/0_240.png","70","image-keyboard-response","163","183642","0.0-6.0-1.78","MAGA","1","f","rechts","24","","","object","f","0","true"
"null","<div style=""font-size:60px;"">+</div>","null","html-keyboard-response","164","184094","0.0-6.0-0.79","MAGA","1","f","rechts","24","","fixation","","","",""
"1482","img/90_180.png","70","image-keyboard-response","165","185576","0.0-6.0-1.79","MAGA","1","f","rechts","24","","","object","f","90","true"
"null","<div style=""font-size:60px;"">+</div>","null","html-keyboard-response","166","186078","0.0-6.0-0.80","MAGA","1","f","rechts","24","","fixation","","","",""
"1397","img/90_60.png","70","image-keyboard-response","167","187475","0.0-6.0-1.80","MAGA","1","f","rechts","24","","","object","f","90","true"
"null","<div style=""font-size:60px;"">+</div>","null","html-keyboard-response","168","187926","0.0-6.0-0.81","MAGA","1","f","rechts","24","","fixation","","","",""
"905","img/0_90.png","74","image-keyboard-response","169","188831","0.0-6.0-1.81","MAGA","1","f","rechts","24","","","object","j","0","true"
"null","<div style=""font-size:60px;"">+</div>","null","html-keyboard-response","170","189283","0.0-6.0-0.82","MAGA","1","f","rechts","24","","fixation","","","",""
"1312","img/L150_180.png","74","image-keyboard-response","171","190595","0.0-6.0-1.82","MAGA","1","f","rechts","24","","","object","j","150","true"
"null","<div style=""font-size:60px;"">+</div>","null","html-keyboard-response","172","191047","0.0-6.0-0.83","MAGA","1","f","rechts","24","","fixation","","","",""
"1472","img/60_210.png","70","image-keyboard-response","173","192520","0.0-6.0-1.83","MAGA","1","f","rechts","24","","","object","f","60","true"
"null","<div style=""font-size:60px;"">+</div>","null","html-keyboard-response","174","193021","0.0-6.0-0.84","MAGA","1","f","rechts","24","","fixation","","","",""
"1062","img/60_150.png","74","image-keyboard-response","175","194084","0.0-6.0-1.84","MAGA","1","f","rechts","24","","","object","j","60","true"
"null","<div style=""font-size:60px;"">+</div>","null","html-keyboard-response","176","194435","0.0-6.0-0.85","MAGA","1","f","rechts","24","","fixation","","","",""
"1841","img/150_270.png","74","image-keyboard-response","177","196277","0.0-6.0-1.85","MAGA","1","f","rechts","24","","","object","j","150","true"
"null","<div style=""font-size:60px;"">+</div>","null","html-keyboard-response","178","196579","0.0-6.0-0.86","MAGA","1","f","rechts","24","","fixation","","","",""
"1519","img/150_240.png","74","image-keyboard-response","179","198098","0.0-6.0-1.86","MAGA","1","f","rechts","24","","","object","j","150","true"
"null","<div style=""font-size:60px;"">+</div>","null","html-keyboard-response","180","198449","0.0-6.0-0.87","MAGA","1","f","rechts","24","","fixation","","","",""
"1570","img/30_270.png","74","image-keyboard-response","181","200021","0.0-6.0-1.87","MAGA","1","f","rechts","24","","","object","f","30","false"
"null","<div style=""font-size:60px;"">+</div>","null","html-keyboard-response","182","200372","0.0-6.0-0.88","MAGA","1","f","rechts","24","","fixation","","","",""
"772","img/0_60.png","74","image-keyboard-response","183","201145","0.0-6.0-1.88","MAGA","1","f","rechts","24","","","object","j","0","true"
"null","<div style=""font-size:60px;"">+</div>","null","html-keyboard-response","184","201646","0.0-6.0-0.89","MAGA","1","f","rechts","24","","fixation","","","",""
"1207","img/L60_180.png","74","image-keyboard-response","185","202855","0.0-6.0-1.89","MAGA","1","f","rechts","24","","","object","j","60","true"
"null","<div style=""font-size:60px;"">+</div>","null","html-keyboard-response","186","203206","0.0-6.0-0.90","MAGA","1","f","rechts","24","","fixation","","","",""
"765","img/90_150.png","74","image-keyboard-response","187","203973","0.0-6.0-1.90","MAGA","1","f","rechts","24","","","object","j","90","true"
"null","<div style=""font-size:60px;"">+</div>","null","html-keyboard-response","188","204475","0.0-6.0-0.91","MAGA","1","f","rechts","24","","fixation","","","",""
"1070","img/60_180.png","70","image-keyboard-response","189","205545","0.0-6.0-1.91","MAGA","1","f","rechts","24","","","object","f","60","true"
"null","<div style=""font-size:60px;"">+</div>","null","html-keyboard-response","190","205997","0.0-6.0-0.92","MAGA","1","f","rechts","24","","fixation","","","",""
"956","img/L90_180.png","74","image-keyboard-response","191","206955","0.0-6.0-1.92","MAGA","1","f","rechts","24","","","object","j","90","true"
"null","<div style=""font-size:60px;"">+</div>","null","html-keyboard-response","192","207456","0.0-6.0-0.93","MAGA","1","f","rechts","24","","fixation","","","",""
"846","img/90_330.png","74","image-keyboard-response","193","208304","0.0-6.0-1.93","MAGA","1","f","rechts","24","","","object","j","90","true"
"null","<div style=""font-size:60px;"">+</div>","null","html-keyboard-response","194","208655","0.0-6.0-0.94","MAGA","1","f","rechts","24","","fixation","","","",""
"1175","img/30_300.png","74","image-keyboard-response","195","209831","0.0-6.0-1.94","MAGA","1","f","rechts","24","","","object","f","30","false"
"null","<div style=""font-size:60px;"">+</div>","null","html-keyboard-response","196","210133","0.0-6.0-0.95","MAGA","1","f","rechts","24","","fixation","","","",""
"1003","img/90_30.png","70","image-keyboard-response","197","211138","0.0-6.0-1.95","MAGA","1","f","rechts","24","","","object","f","90","true"
"null","<div style=""font-size:60px;"">+</div>","null","html-keyboard-response","198","211639","0.0-6.0-0.96","MAGA","1","f","rechts","24","","fixation","","","",""
"1063","img/90_120.png","74","image-keyboard-response","199","212703","0.0-6.0-1.96","MAGA","1","f","rechts","24","","","object","j","90","true"
"null","<div style=""font-size:60px;"">+</div>","null","html-keyboard-response","200","213154","0.0-6.0-0.97","MAGA","1","f","rechts","24","","fixation","","","",""
"1245","img/30_240.png","70","image-keyboard-response","201","214400","0.0-6.0-1.97","MAGA","1","f","rechts","24","","","object","f","30","true"
"null","<div style=""font-size:60px;"">+</div>","null","html-keyboard-response","202","214752","0.0-6.0-0.98","MAGA","1","f","rechts","24","","fixation","","","",""
"646","img/0_120.png","74","image-keyboard-response","203","215399","0.0-6.0-1.98","MAGA","1","f","rechts","24","","","object","j","0","true"
"null","<div style=""font-size:60px;"">+</div>","null","html-keyboard-response","204","215701","0.0-6.0-0.99","MAGA","1","f","rechts","24","","fixation","","","",""
"803","img/30_120.png","74","image-keyboard-response","205","216506","0.0-6.0-1.99","MAGA","1","f","rechts","24","","","object","j","30","true"
"null","<div style=""font-size:60px;"">+</div>","null","html-keyboard-response","206","216857","0.0-6.0-0.100","MAGA","1","f","rechts","24","","fixation","","","",""
"628","img/30_90.png","74","image-keyboard-response","207","217486","0.0-6.0-1.100","MAGA","1","f","rechts","24","","","object","j","30","true"
"null","<div style=""font-size:60px;"">+</div>","null","html-keyboard-response","208","217988","0.0-6.0-0.101","MAGA","1","f","rechts","24","","fixation","","","",""
"1072","img/90_210.png","70","image-keyboard-response","209","219061","0.0-6.0-1.101","MAGA","1","f","rechts","24","","","object","f","90","true"
"null","<div style=""font-size:60px;"">+</div>","null","html-keyboard-response","210","219463","0.0-6.0-0.102","MAGA","1","f","rechts","24","","fixation","","","",""
"946","img/60_330.png","74","image-keyboard-response","211","220409","0.0-6.0-1.102","MAGA","1","f","rechts","24","","","object","j","60","true"
"null","<div style=""font-size:60px;"">+</div>","null","html-keyboard-response","212","220711","0.0-6.0-0.103","MAGA","1","f","rechts","24","","fixation","","","",""
"631","img/0_300.png","70","image-keyboard-response","213","221343","0.0-6.0-1.103","MAGA","1","f","rechts","24","","","object","f","0","true"
"null","<div style=""font-size:60px;"">+</div>","null","html-keyboard-response","214","221845","0.0-6.0-0.104","MAGA","1","f","rechts","24","","fixation","","","",""
"569","img/0_90.png","74","image-keyboard-response","215","222415","0.0-6.0-1.104","MAGA","1","f","rechts","24","","","object","j","0","true"
"null","<div style=""font-size:60px;"">+</div>","null","html-keyboard-response","216","222767","0.0-6.0-0.105","MAGA","1","f","rechts","24","","fixation","","","",""
"1367","img/120_30.png","70","image-keyboard-response","217","224134","0.0-6.0-1.105","MAGA","1","f","rechts","24","","","object","f","120","true"
"null","<div style=""font-size:60px;"">+</div>","null","html-keyboard-response","218","224586","0.0-6.0-0.106","MAGA","1","f","rechts","24","","fixation","","","",""
"883","img/90_150.png","74","image-keyboard-response","219","225469","0.0-6.0-1.106","MAGA","1","f","rechts","24","","","object","j","90","true"
"null","<div style=""font-size:60px;"">+</div>","null","html-keyboard-response","220","225971","0.0-6.0-0.107","MAGA","1","f","rechts","24","","fixation","","","",""
"1521","img/L60_180.png","74","image-keyboard-response","221","227493","0.0-6.0-1.107","MAGA","1","f","rechts","24","","","object","j","60","true"
"null","<div style=""font-size:60px;"">+</div>","null","html-keyboard-response","222","227795","0.0-6.0-0.108","MAGA","1","f","rechts","24","","fixation","","","",""
"798","img/30_90.png","74","image-keyboard-response","223","228594","0.0-6.0-1.108","MAGA","1","f","rechts","24","","","object","j","30","true"
"null","<div style=""font-size:60px;"">+</div>","null","html-keyboard-response","224","228946","0.0-6.0-0.109","MAGA","1","f","rechts","24","","fixation","","","",""
"1344","img/150_270.png","70","image-keyboard-response","225","230291","0.0-6.0-1.109","MAGA","1","f","rechts","24","","","object","j","150","false"
"null","<div style=""font-size:60px;"">+</div>","null","html-keyboard-response","226","230693","0.0-6.0-0.110","MAGA","1","f","rechts","24","","fixation","","","",""
"678","img/0_30.png","74","image-keyboard-response","227","231371","0.0-6.0-1.110","MAGA","1","f","rechts","24","","","object","j","0","true"
"null","<div style=""font-size:60px;"">+</div>","null","html-keyboard-response","228","231773","0.0-6.0-0.111","MAGA","1","f","rechts","24","","fixation","","","",""
"999","img/30_240.png","70","image-keyboard-response","229","232772","0.0-6.0-1.111","MAGA","1","f","rechts","24","","","object","f","30","true"
"null","<div style=""font-size:60px;"">+</div>","null","html-keyboard-response","230","233224","0.0-6.0-0.112","MAGA","1","f","rechts","24","","fixation","","","",""
"952","img/30_60.png","74","image-keyboard-response","231","234177","0.0-6.0-1.112","MAGA","1","f","rechts","24","","","object","j","30","true"
"null","<div style=""font-size:60px;"">+</div>","null","html-keyboard-response","232","234579","0.0-6.0-0.113","MAGA","1","f","rechts","24","","fixation","","","",""
"704","img/0_330.png","70","image-keyboard-response","233","235283","0.0-6.0-1.113","MAGA","1","f","rechts","24","","","object","f","0","true"
"null","<div style=""font-size:60px;"">+</div>","null","html-keyboard-response","234","235735","0.0-6.0-0.114","MAGA","1","f","rechts","24","","fixation","","","",""
"956","img/60_270.png","70","image-keyboard-response","235","236691","0.0-6.0-1.114","MAGA","1","f","rechts","24","","","object","f","60","true"
"null","<div style=""font-size:60px;"">+</div>","null","html-keyboard-response","236","237143","0.0-6.0-0.115","MAGA","1","f","rechts","24","","fixation","","","",""
"839","img/90_300.png","74","image-keyboard-response","237","237983","0.0-6.0-1.115","MAGA","1","f","rechts","24","","","object","j","90","true"
"null","<div style=""font-size:60px;"">+</div>","null","html-keyboard-response","238","238334","0.0-6.0-0.116","MAGA","1","f","rechts","24","","fixation","","","",""
"653","img/0_240.png","70","image-keyboard-response","239","238987","0.0-6.0-1.116","MAGA","1","f","rechts","24","","","object","f","0","true"
"null","<div style=""font-size:60px;"">+</div>","null","html-keyboard-response","240","239489","0.0-6.0-0.117","MAGA","1","f","rechts","24","","fixation","","","",""
"926","img/60_150.png","74","image-keyboard-response","241","240415","0.0-6.0-1.117","MAGA","1","f","rechts","24","","","object","j","60","true"
"null","<div style=""font-size:60px;"">+</div>","null","html-keyboard-response","242","240867","0.0-6.0-0.118","MAGA","1","f","rechts","24","","fixation","","","",""
"803","img/0_150.png","74","image-keyboard-response","243","241670","0.0-6.0-1.118","MAGA","1","f","rechts","24","","","object","j","0","true"
"null","<div style=""font-size:60px;"">+</div>","null","html-keyboard-response","244","242122","0.0-6.0-0.119","MAGA","1","f","rechts","24","","fixation","","","",""
"1113","img/120_180.png","70","image-keyboard-response","245","243235","0.0-6.0-1.119","MAGA","1","f","rechts","24","","","object","f","120","true"
"null","<div style=""font-size:60px;"">+</div>","null","html-keyboard-response","246","243537","0.0-6.0-0.120","MAGA","1","f","rechts","24","","fixation","","","",""
"626","img/0_60.png","74","image-keyboard-response","247","244163","0.0-6.0-1.120","MAGA","1","f","rechts","24","","","object","j","0","true"
"null","<div style=""font-size:60px;"">+</div>","null","html-keyboard-response","248","244465","0.0-6.0-0.121","MAGA","1","f","rechts","24","","fixation","","","",""
"1072","img/150_90.png","70","image-keyboard-response","249","245537","0.0-6.0-1.121","MAGA","1","f","rechts","24","","","object","f","150","true"
"null","<div style=""font-size:60px;"">+</div>","null","html-keyboard-response","250","245989","0.0-6.0-0.122","MAGA","1","f","rechts","24","","fixation","","","",""
"1137","img/30_300.png","74","image-keyboard-response","251","247126","0.0-6.0-1.122","MAGA","1","f","rechts","24","","","object","f","30","false"
"null","<div style=""font-size:60px;"">+</div>","null","html-keyboard-response","252","247628","0.0-6.0-0.123","MAGA","1","f","rechts","24","","fixation","","","",""
"1090","img/L90_180.png","74","image-keyboard-response","253","248719","0.0-6.0-1.123","MAGA","1","f","rechts","24","","","object","j","90","true"
"null","<div style=""font-size:60px;"">+</div>","null","html-keyboard-response","254","249120","0.0-6.0-0.124","MAGA","1","f","rechts","24","","fixation","","","",""
"1605","img/60_210.png","70","image-keyboard-response","255","250727","0.0-6.0-1.124","MAGA","1","f","rechts","24","","","object","f","60","true"
"null","<div style=""font-size:60px;"">+</div>","null","html-keyboard-response","256","251128","0.0-6.0-0.125","MAGA","1","f","rechts","24","","fixation","","","",""
"1800","img/120_210.png","70","image-keyboard-response","257","252929","0.0-6.0-1.125","MAGA","1","f","rechts","24","","","object","f","120","true"
"null","<div style=""font-size:60px;"">+</div>","null","html-keyboard-response","258","253230","0.0-6.0-0.126","MAGA","1","f","rechts","24","","fixation","","","",""
"2058","img/120_150.png","74","image-keyboard-response","259","255290","0.0-6.0-1.126","MAGA","1","f","rechts","24","","","object","j","120","true"
"null","<div style=""font-size:60px;"">+</div>","null","html-keyboard-response","260","255641","0.0-6.0-0.127","MAGA","1","f","rechts","24","","fixation","","","",""
"946","img/0_300.png","70","image-keyboard-response","261","256588","0.0-6.0-1.127","MAGA","1","f","rechts","24","","","object","f","0","true"
"null","<div style=""font-size:60px;"">+</div>","null","html-keyboard-response","262","257090","0.0-6.0-0.128","MAGA","1","f","rechts","24","","fixation","","","",""
"1315","img/120_270.png","70","image-keyboard-response","263","258407","0.0-6.0-1.128","MAGA","1","f","rechts","24","","","object","j","120","false"
"null","<div style=""font-size:60px;"">+</div>","null","html-keyboard-response","264","258758","0.0-6.0-0.129","MAGA","1","f","rechts","24","","fixation","","","",""
"873","img/120_330.png","74","image-keyboard-response","265","259633","0.0-6.0-1.129","MAGA","1","f","rechts","24","","","object","j","120","true"
"null","<div style=""font-size:60px;"">+</div>","null","html-keyboard-response","266","260134","0.0-6.0-0.130","MAGA","1","f","rechts","24","","fixation","","","",""
"1753","img/L30_180.png","74","image-keyboard-response","267","261889","0.0-6.0-1.130","MAGA","1","f","rechts","24","","","object","j","30","true"
"null","<div style=""font-size:60px;"">+</div>","null","html-keyboard-response","268","262190","0.0-6.0-0.131","MAGA","1","f","rechts","24","","fixation","","","",""
"1743","img/L150_180.png","74","image-keyboard-response","269","263934","0.0-6.0-1.131","MAGA","1","f","rechts","24","","","object","j","150","true"
"null","<div style=""font-size:60px;"">+</div>","null","html-keyboard-response","270","264386","0.0-6.0-0.132","MAGA","1","f","rechts","24","","fixation","","","",""
"1255","img/150_180.png","70","image-keyboard-response","271","265642","0.0-6.0-1.132","MAGA","1","f","rechts","24","","","object","f","150","true"
"null","<div style=""font-size:60px;"">+</div>","null","html-keyboard-response","272","265994","0.0-6.0-0.133","MAGA","1","f","rechts","24","","fixation","","","",""
"1933","img/90_240.png","70","image-keyboard-response","273","267928","0.0-6.0-1.133","MAGA","1","f","rechts","24","","","object","f","90","true"
"null","<div style=""font-size:60px;"">+</div>","null","html-keyboard-response","274","268430","0.0-6.0-0.134","MAGA","1","f","rechts","24","","fixation","","","",""
"1305","img/60_30.png","70","image-keyboard-response","275","269736","0.0-6.0-1.134","MAGA","1","f","rechts","24","","","object","f","60","true"
"null","<div style=""font-size:60px;"">+</div>","null","html-keyboard-response","276","270038","0.0-6.0-0.135","MAGA","1","f","rechts","24","","fixation","","","",""
"1877","img/60_180.png","70","image-keyboard-response","277","271916","0.0-6.0-1.135","MAGA","1","f","rechts","24","","","object","f","60","true"
"null","<div style=""font-size:60px;"">+</div>","null","html-keyboard-response","278","272368","0.0-6.0-0.136","MAGA","1","f","rechts","24","","fixation","","","",""
"1376","img/150_60.png","70","image-keyboard-response","279","273746","0.0-6.0-1.136","MAGA","1","f","rechts","24","","","object","f","150","true"
"null","<div style=""font-size:60px;"">+</div>","null","html-keyboard-response","280","274197","0.0-6.0-0.137","MAGA","1","f","rechts","24","","fixation","","","",""
"1896","img/L120_180.png","74","image-keyboard-response","281","276094","0.0-6.0-1.137","MAGA","1","f","rechts","24","","","object","j","120","true"
"null","<div style=""font-size:60px;"">+</div>","null","html-keyboard-response","282","276596","0.0-6.0-0.138","MAGA","1","f","rechts","24","","fixation","","","",""
"2197","img/30_120.png","74","image-keyboard-response","283","278794","0.0-6.0-1.138","MAGA","1","f","rechts","24","","","object","j","30","true"
"null","<div style=""font-size:60px;"">+</div>","null","html-keyboard-response","284","279146","0.0-6.0-0.139","MAGA","1","f","rechts","24","","fixation","","","",""
"1539","img/90_330.png","74","image-keyboard-response","285","280686","0.0-6.0-1.139","MAGA","1","f","rechts","24","","","object","j","90","true"
"null","<div style=""font-size:60px;"">+</div>","null","html-keyboard-response","286","281188","0.0-6.0-0.140","MAGA","1","f","rechts","24","","fixation","","","",""
"1621","img/120_90.png","70","image-keyboard-response","287","282809","0.0-6.0-1.140","MAGA","1","f","rechts","24","","","object","f","120","true"
"null","<div style=""font-size:60px;"">+</div>","null","html-keyboard-response","288","283111","0.0-6.0-0.141","MAGA","1","f","rechts","24","","fixation","","","",""
"1718","img/90_180.png","70","image-keyboard-response","289","284829","0.0-6.0-1.141","MAGA","1","f","rechts","24","","","object","f","90","true"
"null","<div style=""font-size:60px;"">+</div>","null","html-keyboard-response","290","285280","0.0-6.0-0.142","MAGA","1","f","rechts","24","","fixation","","","",""
"1985","img/150_240.png","70","image-keyboard-response","291","287266","0.0-6.0-1.142","MAGA","1","f","rechts","24","","","object","j","150","false"
"null","<div style=""font-size:60px;"">+</div>","null","html-keyboard-response","292","287668","0.0-6.0-0.143","MAGA","1","f","rechts","24","","fixation","","","",""
"1378","img/30_270.png","70","image-keyboard-response","293","289046","0.0-6.0-1.143","MAGA","1","f","rechts","24","","","object","f","30","true"
"null","<div style=""font-size:60px;"">+</div>","null","html-keyboard-response","294","289347","0.0-6.0-0.144","MAGA","1","f","rechts","24","","fixation","","","",""
"1502","img/90_210.png","70","image-keyboard-response","295","290849","0.0-6.0-1.144","MAGA","1","f","rechts","24","","","object","f","90","true"
"null","<div style=""font-size:60px;"">+</div>","null","html-keyboard-response","296","291200","0.0-6.0-0.145","MAGA","1","f","rechts","24","","fixation","","","",""
"1584","img/90_120.png","74","image-keyboard-response","297","292785","0.0-6.0-1.145","MAGA","1","f","rechts","24","","","object","j","90","true"
"null","<div style=""font-size:60px;"">+</div>","null","html-keyboard-response","298","293137","0.0-6.0-0.146","MAGA","1","f","rechts","24","","fixation","","","",""
"1461","img/150_120.png","70","image-keyboard-response","299","294598","0.0-6.0-1.146","MAGA","1","f","rechts","24","","","object","f","150","true"
"null","<div style=""font-size:60px;"">+</div>","null","html-keyboard-response","300","294948","0.0-6.0-0.147","MAGA","1","f","rechts","24","","fixation","","","",""
"1202","img/90_30.png","70","image-keyboard-response","301","296151","0.0-6.0-1.147","MAGA","1","f","rechts","24","","","object","f","90","true"
"null","<div style=""font-size:60px;"">+</div>","null","html-keyboard-response","302","296602","0.0-6.0-0.148","MAGA","1","f","rechts","24","","fixation","","","",""
"1073","img/90_60.png","70","image-keyboard-response","303","297676","0.0-6.0-1.148","MAGA","1","f","rechts","24","","","object","f","90","true"
"null","<div style=""font-size:60px;"">+</div>","null","html-keyboard-response","304","298078","0.0-6.0-0.149","MAGA","1","f","rechts","24","","fixation","","","",""
"690","img/60_330.png","74","image-keyboard-response","305","298770","0.0-6.0-1.149","MAGA","1","f","rechts","24","","","object","j","60","true"
"null","<div style=""font-size:60px;"">+</div>","null","html-keyboard-response","306","299121","0.0-6.0-0.150","MAGA","1","f","rechts","24","","fixation","","","",""
"713","img/0_270.png","70","image-keyboard-response","307","299836","0.0-6.0-1.150","MAGA","1","f","rechts","24","","","object","f","0","true"
"null","<div style=""font-size:60px;"">+</div>","null","html-keyboard-response","308","300187","0.0-6.0-0.151","MAGA","1","f","rechts","24","","fixation","","","",""
"1897","img/60_90.png","74","image-keyboard-response","309","302086","0.0-6.0-1.151","MAGA","1","f","rechts","24","","","object","j","60","true"
"null","<div style=""font-size:60px;"">+</div>","null","html-keyboard-response","310","302537","0.0-6.0-0.152","MAGA","1","f","rechts","24","","fixation","","","",""
"1208","img/0_210.png","70","image-keyboard-response","311","303746","0.0-6.0-1.152","MAGA","1","f","rechts","24","","","object","f","0","true"
"null","<div style=""font-size:60px;"">+</div>","null","html-keyboard-response","312","304098","0.0-6.0-0.153","MAGA","1","f","rechts","24","","fixation","","","",""
"1660","img/150_300.png","74","image-keyboard-response","313","305759","0.0-6.0-1.153","MAGA","1","f","rechts","24","","","object","j","150","true"
"null","<div style=""font-size:60px;"">+</div>","null","html-keyboard-response","314","306061","0.0-6.0-0.154","MAGA","1","f","rechts","24","","fixation","","","",""
"685","img/0_120.png","74","image-keyboard-response","315","306748","0.0-6.0-1.154","MAGA","1","f","rechts","24","","","object","j","0","true"
"null","<div style=""font-size:60px;"">+</div>","null","html-keyboard-response","316","307249","0.0-6.0-0.155","MAGA","1","f","rechts","24","","fixation","","","",""
"1312","img/30_180.png","70","image-keyboard-response","317","308563","0.0-6.0-1.155","MAGA","1","f","rechts","24","","","object","f","30","true"
"null","<div style=""font-size:60px;"">+</div>","null","html-keyboard-response","318","308964","0.0-6.0-0.156","MAGA","1","f","rechts","24","","fixation","","","",""
"2276","img/150_90.png","70","image-keyboard-response","319","311241","0.0-6.0-1.156","MAGA","1","f","rechts","24","","","object","f","150","true"
"null","<div style=""font-size:60px;"">+</div>","null","html-keyboard-response","320","311543","0.0-6.0-0.157","MAGA","1","f","rechts","24","","fixation","","","",""
"1297","img/150_240.png","74","image-keyboard-response","321","312842","0.0-6.0-1.157","MAGA","1","f","rechts","24","","","object","j","150","true"
"null","<div style=""font-size:60px;"">+</div>","null","html-keyboard-response","322","313143","0.0-6.0-0.158","MAGA","1","f","rechts","24","","fixation","","","",""
"2000","img/L120_180.png","74","image-keyboard-response","323","315144","0.0-6.0-1.158","MAGA","1","f","rechts","24","","","object","j","120","true"
"null","<div style=""font-size:60px;"">+</div>","null","html-keyboard-response","324","315646","0.0-6.0-0.159","MAGA","1","f","rechts","24","","fixation","","","",""
"848","img/0_300.png","70","image-keyboard-response","325","316495","0.0-6.0-1.159","MAGA","1","f","rechts","24","","","object","f","0","true"
"null","<div style=""font-size:60px;"">+</div>","null","html-keyboard-response","326","316847","0.0-6.0-0.160","MAGA","1","f","rechts","24","","fixation","","","",""
"569","img/0_240.png","70","image-keyboard-response","327","317417","0.0-6.0-1.160","MAGA","1","f","rechts","24","","","object","f","0","true"
"null","<div style=""font-size:60px;"">+</div>","null","html-keyboard-response","328","317719","0.0-6.0-0.161","MAGA","1","f","rechts","24","","fixation","","","",""
"581","img/0_30.png","74","image-keyboard-response","329","318301","0.0-6.0-1.161","MAGA","1","f","rechts","24","","","object","j","0","true"
"null","<div style=""font-size:60px;"">+</div>","null","html-keyboard-response","330","318603","0.0-6.0-0.162","MAGA","1","f","rechts","24","","fixation","","","",""
"1333","img/90_180.png","70","image-keyboard-response","331","319937","0.0-6.0-1.162","MAGA","1","f","rechts","24","","","object","f","90","true"
"null","<div style=""font-size:60px;"">+</div>","null","html-keyboard-response","332","320239","0.0-6.0-0.163","MAGA","1","f","rechts","24","","fixation","","","",""
"1320","img/150_60.png","70","image-keyboard-response","333","321561","0.0-6.0-1.163","MAGA","1","f","rechts","24","","","object","f","150","true"
"null","<div style=""font-size:60px;"">+</div>","null","html-keyboard-response","334","321962","0.0-6.0-0.164","MAGA","1","f","rechts","24","","fixation","","","",""
"1700","img/150_180.png","70","image-keyboard-response","335","323663","0.0-6.0-1.164","MAGA","1","f","rechts","24","","","object","f","150","true"
"null","<div style=""font-size:60px;"">+</div>","null","html-keyboard-response","336","324165","0.0-6.0-0.165","MAGA","1","f","rechts","24","","fixation","","","",""
"1412","img/30_240.png","70","image-keyboard-response","337","325578","0.0-6.0-1.165","MAGA","1","f","rechts","24","","","object","f","30","true"
"null","<div style=""font-size:60px;"">+</div>","null","html-keyboard-response","338","325980","0.0-6.0-0.166","MAGA","1","f","rechts","24","","fixation","","","",""
"813","img/30_120.png","74","image-keyboard-response","339","326794","0.0-6.0-1.166","MAGA","1","f","rechts","24","","","object","j","30","true"
"null","<div style=""font-size:60px;"">+</div>","null","html-keyboard-response","340","327296","0.0-6.0-0.167","MAGA","1","f","rechts","24","","fixation","","","",""
"2194","img/150_120.png","70","image-keyboard-response","341","329490","0.0-6.0-1.167","MAGA","1","f","rechts","24","","","object","f","150","true"
"null","<div style=""font-size:60px;"">+</div>","null","html-keyboard-response","342","329892","0.0-6.0-0.168","MAGA","1","f","rechts","24","","fixation","","","",""
"1308","img/150_300.png","74","image-keyboard-response","343","331201","0.0-6.0-1.168","MAGA","1","f","rechts","24","","","object","j","150","true"
"null","<div style=""font-size:60px;"">+</div>","null","html-keyboard-response","344","331502","0.0-6.0-0.169","MAGA","1","f","rechts","24","","fixation","","","",""
"627","img/120_330.png","74","image-keyboard-response","345","332130","0.0-6.0-1.169","MAGA","1","f","rechts","24","","","object","j","120","true"
"null","<div style=""font-size:60px;"">+</div>","null","html-keyboard-response","346","332582","0.0-6.0-0.170","MAGA","1","f","rechts","24","","fixation","","","",""
"1168","img/L60_180.png","74","image-keyboard-response","347","333751","0.0-6.0-1.170","MAGA","1","f","rechts","24","","","object","j","60","true"
"null","<div style=""font-size:60px;"">+</div>","null","html-keyboard-response","348","334053","0.0-6.0-0.171","MAGA","1","f","rechts","24","","fixation","","","",""
"1110","img/120_210.png","70","image-keyboard-response","349","335163","0.0-6.0-1.171","MAGA","1","f","rechts","24","","","object","f","120","true"
"null","<div style=""font-size:60px;"">+</div>","null","html-keyboard-response","350","335665","0.0-6.0-0.172","MAGA","1","f","rechts","24","","fixation","","","",""
"1209","img/L150_180.png","74","image-keyboard-response","351","336875","0.0-6.0-1.172","MAGA","1","f","rechts","24","","","object","j","150","true"
"null","<div style=""font-size:60px;"">+</div>","null","html-keyboard-response","352","337326","0.0-6.0-0.173","MAGA","1","f","rechts","24","","fixation","","","",""
"1715","img/90_60.png","70","image-keyboard-response","353","339041","0.0-6.0-1.173","MAGA","1","f","rechts","24","","","object","f","90","true"
"null","<div style=""font-size:60px;"">+</div>","null","html-keyboard-response","354","339493","0.0-6.0-0.174","MAGA","1","f","rechts","24","","fixation","","","",""
"1470","img/0_150.png","74","image-keyboard-response","355","340964","0.0-6.0-1.174","MAGA","1","f","rechts","24","","","object","j","0","true"
"null","<div style=""font-size:60px;"">+</div>","null","html-keyboard-response","356","341465","0.0-6.0-0.175","MAGA","1","f","rechts","24","","fixation","","","",""
"1315","img/30_90.png","74","image-keyboard-response","357","342781","0.0-6.0-1.175","MAGA","1","f","rechts","24","","","object","j","30","true"
"null","<div style=""font-size:60px;"">+</div>","null","html-keyboard-response","358","343283","0.0-6.0-0.176","MAGA","1","f","rechts","24","","fixation","","","",""
"1284","img/90_30.png","70","image-keyboard-response","359","344567","0.0-6.0-1.176","MAGA","1","f","rechts","24","","","object","f","90","true"
"null","<div style=""font-size:60px;"">+</div>","null","html-keyboard-response","360","344869","0.0-6.0-0.177","MAGA","1","f","rechts","24","","fixation","","","",""
"1798","img/90_120.png","74","image-keyboard-response","361","346667","0.0-6.0-1.177","MAGA","1","f","rechts","24","","","object","j","90","true"
"null","<div style=""font-size:60px;"">+</div>","null","html-keyboard-response","362","346969","0.0-6.0-0.178","MAGA","1","f","rechts","24","","fixation","","","",""
"1333","img/90_150.png","74","image-keyboard-response","363","348303","0.0-6.0-1.178","MAGA","1","f","rechts","24","","","object","j","90","true"
"null","<div style=""font-size:60px;"">+</div>","null","html-keyboard-response","364","348754","0.0-6.0-0.179","MAGA","1","f","rechts","24","","fixation","","","",""
"1938","img/90_240.png","70","image-keyboard-response","365","350693","0.0-6.0-1.179","MAGA","1","f","rechts","24","","","object","f","90","true"
"null","<div style=""font-size:60px;"">+</div>","null","html-keyboard-response","366","350994","0.0-6.0-0.180","MAGA","1","f","rechts","24","","fixation","","","",""
"1330","img/0_210.png","70","image-keyboard-response","367","352325","0.0-6.0-1.180","MAGA","1","f","rechts","24","","","object","f","0","true"
"null","<div style=""font-size:60px;"">+</div>","null","html-keyboard-response","368","352727","0.0-6.0-0.181","MAGA","1","f","rechts","24","","fixation","","","",""
"1779","img/120_90.png","70","image-keyboard-response","369","354506","0.0-6.0-1.181","MAGA","1","f","rechts","24","","","object","f","120","true"
"null","<div style=""font-size:60px;"">+</div>","null","html-keyboard-response","370","354857","0.0-6.0-0.182","MAGA","1","f","rechts","24","","fixation","","","",""
"1589","img/30_60.png","74","image-keyboard-response","371","356447","0.0-6.0-1.182","MAGA","1","f","rechts","24","","","object","j","30","true"
"null","<div style=""font-size:60px;"">+</div>","null","html-keyboard-response","372","356898","0.0-6.0-0.183","MAGA","1","f","rechts","24","","fixation","","","",""
"1508","img/90_210.png","74","image-keyboard-response","373","358407","0.0-6.0-1.183","MAGA","1","f","rechts","24","","","object","f","90","false"
"null","<div style=""font-size:60px;"">+</div>","null","html-keyboard-response","374","358809","0.0-6.0-0.184","MAGA","1","f","rechts","24","","fixation","","","",""
"1955","img/120_270.png","74","image-keyboard-response","375","360765","0.0-6.0-1.184","MAGA","1","f","rechts","24","","","object","j","120","true"
"null","<div style=""font-size:60px;"">+</div>","null","html-keyboard-response","376","361066","0.0-6.0-0.185","MAGA","1","f","rechts","24","","fixation","","","",""
"2180","img/120_150.png","70","image-keyboard-response","377","363248","0.0-6.0-1.185","MAGA","1","f","rechts","24","","","object","j","120","false"
"null","<div style=""font-size:60px;"">+</div>","null","html-keyboard-response","378","363699","0.0-6.0-0.186","MAGA","1","f","rechts","24","","fixation","","","",""
"1158","img/60_330.png","74","image-keyboard-response","379","364858","0.0-6.0-1.186","MAGA","1","f","rechts","24","","","object","j","60","true"
"null","<div style=""font-size:60px;"">+</div>","null","html-keyboard-response","380","365310","0.0-6.0-0.187","MAGA","1","f","rechts","24","","fixation","","","",""
"1179","img/60_210.png","70","image-keyboard-response","381","366490","0.0-6.0-1.187","MAGA","1","f","rechts","24","","","object","f","60","true"
"null","<div style=""font-size:60px;"">+</div>","null","html-keyboard-response","382","366842","0.0-6.0-0.188","MAGA","1","f","rechts","24","","fixation","","","",""
"883","img/0_60.png","74","image-keyboard-response","383","367726","0.0-6.0-1.188","MAGA","1","f","rechts","24","","","object","j","0","true"
"null","<div style=""font-size:60px;"">+</div>","null","html-keyboard-response","384","368028","0.0-6.0-0.189","MAGA","1","f","rechts","24","","fixation","","","",""
"1453","img/60_30.png","70","image-keyboard-response","385","369482","0.0-6.0-1.189","MAGA","1","f","rechts","24","","","object","f","60","true"
"null","<div style=""font-size:60px;"">+</div>","null","html-keyboard-response","386","369833","0.0-6.0-0.190","MAGA","1","f","rechts","24","","fixation","","","",""
"1933","img/L30_180.png","74","image-keyboard-response","387","371767","0.0-6.0-1.190","MAGA","1","f","rechts","24","","","object","j","30","true"
"null","<div style=""font-size:60px;"">+</div>","null","html-keyboard-response","388","372119","0.0-6.0-0.191","MAGA","1","f","rechts","24","","fixation","","","",""
"2895","img/30_300.png","70","image-keyboard-response","389","375015","0.0-6.0-1.191","MAGA","1","f","rechts","24","","","object","f","30","true"
"null","<div style=""font-size:60px;"">+</div>","null","html-keyboard-response","390","375467","0.0-6.0-0.192","MAGA","1","f","rechts","24","","fixation","","","",""
"807","img/0_270.png","70","image-keyboard-response","391","376275","0.0-6.0-1.192","MAGA","1","f","rechts","24","","","object","f","0","true"
"null","<div style=""font-size:60px;"">+</div>","null","html-keyboard-response","392","376777","0.0-6.0-0.193","MAGA","1","f","rechts","24","","fixation","","","",""
"1168","img/30_270.png","70","image-keyboard-response","393","377946","0.0-6.0-1.193","MAGA","1","f","rechts","24","","","object","f","30","true"
"null","<div style=""font-size:60px;"">+</div>","null","html-keyboard-response","394","378398","0.0-6.0-0.194","MAGA","1","f","rechts","24","","fixation","","","",""
"729","img/60_90.png","74","image-keyboard-response","395","379128","0.0-6.0-1.194","MAGA","1","f","rechts","24","","","object","j","60","true"
"null","<div style=""font-size:60px;"">+</div>","null","html-keyboard-response","396","379480","0.0-6.0-0.195","MAGA","1","f","rechts","24","","fixation","","","",""
"1496","img/120_180.png","70","image-keyboard-response","397","380976","0.0-6.0-1.195","MAGA","1","f","rechts","24","","","object","f","120","true"
"null","<div style=""font-size:60px;"">+</div>","null","html-keyboard-response","398","381427","0.0-6.0-0.196","MAGA","1","f","rechts","24","","fixation","","","",""
"1343","img/60_180.png","70","image-keyboard-response","399","382771","0.0-6.0-1.196","MAGA","1","f","rechts","24","","","object","f","60","true"
"null","<div style=""font-size:60px;"">+</div>","null","html-keyboard-response","400","383073","0.0-6.0-0.197","MAGA","1","f","rechts","24","","fixation","","","",""
"1297","img/60_150.png","74","image-keyboard-response","401","384371","0.0-6.0-1.197","MAGA","1","f","rechts","24","","","object","j","60","true"
"null","<div style=""font-size:60px;"">+</div>","null","html-keyboard-response","402","384673","0.0-6.0-0.198","MAGA","1","f","rechts","24","","fixation","","","",""
"697","img/0_90.png","74","image-keyboard-response","403","385370","0.0-6.0-1.198","MAGA","1","f","rechts","24","","","object","j","0","true"
"null","<div style=""font-size:60px;"">+</div>","null","html-keyboard-response","404","385872","0.0-6.0-0.199","MAGA","1","f","rechts","24","","fixation","","","",""
"1194","img/L90_180.png","74","image-keyboard-response","405","387066","0.0-6.0-1.199","MAGA","1","f","rechts","24","","","object","j","90","true"
"null","<div style=""font-size:60px;"">+</div>","null","html-keyboard-response","406","387368","0.0-6.0-0.200","MAGA","1","f","rechts","24","","fixation","","","",""
"1470","img/150_270.png","74","image-keyboard-response","407","388838","0.0-6.0-1.200","MAGA","1","f","rechts","24","","","object","j","150","true"
"null","<div style=""font-size:60px;"">+</div>","null","html-keyboard-response","408","389239","0.0-6.0-0.201","MAGA","1","f","rechts","24","","fixation","","","",""
"1621","img/90_300.png","74","image-keyboard-response","409","390861","0.0-6.0-1.201","MAGA","1","f","rechts","24","","","object","j","90","true"
"null","<div style=""font-size:60px;"">+</div>","null","html-keyboard-response","410","391263","0.0-6.0-0.202","MAGA","1","f","rechts","24","","fixation","","","",""
"982","img/30_180.png","70","image-keyboard-response","411","392245","0.0-6.0-1.202","MAGA","1","f","rechts","24","","","object","f","30","true"
"null","<div style=""font-size:60px;"">+</div>","null","html-keyboard-response","412","392546","0.0-6.0-0.203","MAGA","1","f","rechts","24","","fixation","","","",""
"778","img/0_330.png","70","image-keyboard-response","413","393324","0.0-6.0-1.203","MAGA","1","f","rechts","24","","","object","f","0","true"
"null","<div style=""font-size:60px;"">+</div>","null","html-keyboard-response","414","393626","0.0-6.0-0.204","MAGA","1","f","rechts","24","","fixation","","","",""
"1294","img/120_30.png","70","image-keyboard-response","415","394920","0.0-6.0-1.204","MAGA","1","f","rechts","24","","","object","f","120","true"
"null","<div style=""font-size:60px;"">+</div>","null","html-keyboard-response","416","395272","0.0-6.0-0.205","MAGA","1","f","rechts","24","","fixation","","","",""
"689","img/0_120.png","74","image-keyboard-response","417","395962","0.0-6.0-1.205","MAGA","1","f","rechts","24","","","object","j","0","true"
"null","<div style=""font-size:60px;"">+</div>","null","html-keyboard-response","418","396463","0.0-6.0-0.206","MAGA","1","f","rechts","24","","fixation","","","",""
"786","img/90_330.png","74","image-keyboard-response","419","397250","0.0-6.0-1.206","MAGA","1","f","rechts","24","","","object","j","90","true"
"null","<div style=""font-size:60px;"">+</div>","null","html-keyboard-response","420","397602","0.0-6.0-0.207","MAGA","1","f","rechts","24","","fixation","","","",""
"1875","img/60_270.png","70","image-keyboard-response","421","399478","0.0-6.0-1.207","MAGA","1","f","rechts","24","","","object","f","60","true"
"11019","<p>Du hast in 86% der Versuche korrekt entschieden.</p><p>Deine durchschnittliche Reaktionszeit war  1297ms.</p><p>Dr&uuml;cke eine beliebige Taste, um die Session zu beenden. Vielen Dank!</p>","68","html-keyboard-response","422","410498","0.0-7.0","MAGA","1","f","rechts","24","","","","","",""
