"rt","stimulus","key_press","trial_type","trial_index","time_elapsed","internal_node_id","subject","session","sex","handedness","age","responses","test_part","condition","correct_response","angle","correct"
"2538","<p>Mental Rotation Experiment.</p> <p>Dr&uuml;cke eine beliebige Taste, um anzufangen.</p>","71","html-keyboard-response","0","2541","0.0-0.0","MAGA","3","f","rechts","24","","","","","",""
"2806","","","survey-text","1","5348","0.0-1.0","MAGA","3","f","rechts","24","{""Q0"":""MAGA""}","","","","",""
"1883","","","survey-text","2","7232","0.0-2.0","MAGA","3","f","rechts","24","{""Q0"":""3""}","","","","",""
"2846","","","survey-multi-choice","3","10080","0.0-3.0","MAGA","3","f","rechts","24","{""Q0"":""f"",""Q1"":""rechts""}","","","","",""
"1875","","","survey-text","4","11956","0.0-4.0","MAGA","3","f","rechts","24","{""Q0"":""24""}","","","","",""
"25376","<p>Stell dir vor, dass du vor einem runden Tisch stehst, auf dem sich ein blauer Ball am Tischrand befindet. Entlang des Tischrands ist jeweils ein verschieden langer Pfeil. Nun bleibst du an deinem Platz vor dem Tisch und rotierst den Tisch entlang des Pfeils (gleiche Richtung und Länge). </p> <img src='img/30_180.png'></img> <br><p> Nachdem du diese (vorgestellte) Rotation durchgef&uuml;hrt hast, schau in Richtung der Tischmitte, und entscheide dann, ob der Ball links oder rechts von dir liegt.</p> <p>Dr&uuml;cke die <strong>'f'</strong>-Taste f&uuml;r links, die <strong>'j'</strong>-Taste f&uuml;r rechts.</p><br><p> Das Bild wird jeweils 1 Sekunde lang pr&auml;sentiert. Du hast 3 Sekunden Zeit eine Entscheidung zu treffen.</p>","74","html-keyboard-response","5","37334","0.0-5.0","MAGA","3","f","rechts","24","","","","","",""
"null","<div style=""font-size:60px;"">+</div>","null","html-keyboard-response","6","38837","0.0-6.0-0.0","MAGA","3","f","rechts","24","","fixation","","","",""
"1316","img/60_150.png","74","image-keyboard-response","7","40156","0.0-6.0-1.0","MAGA","3","f","rechts","24","","","object","j","60","true"
"null","<div style=""font-size:60px;"">+</div>","null","html-keyboard-response","8","40458","0.0-6.0-0.1","MAGA","3","f","rechts","24","","fixation","","","",""
"919","img/120_180.png","70","image-keyboard-response","9","41378","0.0-6.0-1.1","MAGA","3","f","rechts","24","","","object","f","120","true"
"null","<div style=""font-size:60px;"">+</div>","null","html-keyboard-response","10","41879","0.0-6.0-0.2","MAGA","3","f","rechts","24","","fixation","","","",""
"690","img/0_330.png","70","image-keyboard-response","11","42570","0.0-6.0-1.2","MAGA","3","f","rechts","24","","","object","f","0","true"
"null","<div style=""font-size:60px;"">+</div>","null","html-keyboard-response","12","42972","0.0-6.0-0.3","MAGA","3","f","rechts","24","","fixation","","","",""
"1323","img/90_150.png","74","image-keyboard-response","13","44297","0.0-6.0-1.3","MAGA","3","f","rechts","24","","","object","j","90","true"
"null","<div style=""font-size:60px;"">+</div>","null","html-keyboard-response","14","44749","0.0-6.0-0.4","MAGA","3","f","rechts","24","","fixation","","","",""
"1340","img/30_300.png","70","image-keyboard-response","15","46090","0.0-6.0-1.4","MAGA","3","f","rechts","24","","","object","f","30","true"
"null","<div style=""font-size:60px;"">+</div>","null","html-keyboard-response","16","46442","0.0-6.0-0.5","MAGA","3","f","rechts","24","","fixation","","","",""
"1515","img/90_120.png","74","image-keyboard-response","17","47959","0.0-6.0-1.5","MAGA","3","f","rechts","24","","","object","j","90","true"
"null","<div style=""font-size:60px;"">+</div>","null","html-keyboard-response","18","48361","0.0-6.0-0.6","MAGA","3","f","rechts","24","","fixation","","","",""
"884","img/90_330.png","74","image-keyboard-response","19","49245","0.0-6.0-1.6","MAGA","3","f","rechts","24","","","object","j","90","true"
"null","<div style=""font-size:60px;"">+</div>","null","html-keyboard-response","20","49747","0.0-6.0-0.7","MAGA","3","f","rechts","24","","fixation","","","",""
"622","img/0_60.png","74","image-keyboard-response","21","50370","0.0-6.0-1.7","MAGA","3","f","rechts","24","","","object","j","0","true"
"null","<div style=""font-size:60px;"">+</div>","null","html-keyboard-response","22","50771","0.0-6.0-0.8","MAGA","3","f","rechts","24","","fixation","","","",""
"1076","img/150_300.png","74","image-keyboard-response","23","51847","0.0-6.0-1.8","MAGA","3","f","rechts","24","","","object","j","150","true"
"null","<div style=""font-size:60px;"">+</div>","null","html-keyboard-response","24","52349","0.0-6.0-0.9","MAGA","3","f","rechts","24","","fixation","","","",""
"1520","img/L30_180.png","74","image-keyboard-response","25","53869","0.0-6.0-1.9","MAGA","3","f","rechts","24","","","object","j","30","true"
"null","<div style=""font-size:60px;"">+</div>","null","html-keyboard-response","26","54321","0.0-6.0-0.10","MAGA","3","f","rechts","24","","fixation","","","",""
"646","img/0_120.png","74","image-keyboard-response","27","54969","0.0-6.0-1.10","MAGA","3","f","rechts","24","","","object","j","0","true"
"null","<div style=""font-size:60px;"">+</div>","null","html-keyboard-response","28","55371","0.0-6.0-0.11","MAGA","3","f","rechts","24","","fixation","","","",""
"1869","img/90_240.png","70","image-keyboard-response","29","57240","0.0-6.0-1.11","MAGA","3","f","rechts","24","","","object","f","90","true"
"null","<div style=""font-size:60px;"">+</div>","null","html-keyboard-response","30","57542","0.0-6.0-0.12","MAGA","3","f","rechts","24","","fixation","","","",""
"644","img/0_90.png","74","image-keyboard-response","31","58187","0.0-6.0-1.12","MAGA","3","f","rechts","24","","","object","j","0","true"
"null","<div style=""font-size:60px;"">+</div>","null","html-keyboard-response","32","58639","0.0-6.0-0.13","MAGA","3","f","rechts","24","","fixation","","","",""
"590","img/0_240.png","70","image-keyboard-response","33","59231","0.0-6.0-1.13","MAGA","3","f","rechts","24","","","object","f","0","true"
"null","<div style=""font-size:60px;"">+</div>","null","html-keyboard-response","34","59582","0.0-6.0-0.14","MAGA","3","f","rechts","24","","fixation","","","",""
"865","img/30_120.png","74","image-keyboard-response","35","60448","0.0-6.0-1.14","MAGA","3","f","rechts","24","","","object","j","30","true"
"null","<div style=""font-size:60px;"">+</div>","null","html-keyboard-response","36","60850","0.0-6.0-0.15","MAGA","3","f","rechts","24","","fixation","","","",""
"544","img/0_30.png","74","image-keyboard-response","37","61395","0.0-6.0-1.15","MAGA","3","f","rechts","24","","","object","j","0","true"
"null","<div style=""font-size:60px;"">+</div>","null","html-keyboard-response","38","61897","0.0-6.0-0.16","MAGA","3","f","rechts","24","","fixation","","","",""
"898","img/60_210.png","70","image-keyboard-response","39","62796","0.0-6.0-1.16","MAGA","3","f","rechts","24","","","object","f","60","true"
"null","<div style=""font-size:60px;"">+</div>","null","html-keyboard-response","40","63148","0.0-6.0-0.17","MAGA","3","f","rechts","24","","fixation","","","",""
"1508","img/L120_180.png","74","image-keyboard-response","41","64656","0.0-6.0-1.17","MAGA","3","f","rechts","24","","","object","j","120","true"
"null","<div style=""font-size:60px;"">+</div>","null","html-keyboard-response","42","65108","0.0-6.0-0.18","MAGA","3","f","rechts","24","","fixation","","","",""
"996","img/90_300.png","74","image-keyboard-response","43","66105","0.0-6.0-1.18","MAGA","3","f","rechts","24","","","object","j","90","true"
"null","<div style=""font-size:60px;"">+</div>","null","html-keyboard-response","44","66507","0.0-6.0-0.19","MAGA","3","f","rechts","24","","fixation","","","",""
"887","img/30_180.png","70","image-keyboard-response","45","67395","0.0-6.0-1.19","MAGA","3","f","rechts","24","","","object","f","30","true"
"null","<div style=""font-size:60px;"">+</div>","null","html-keyboard-response","46","67847","0.0-6.0-0.20","MAGA","3","f","rechts","24","","fixation","","","",""
"855","img/60_30.png","70","image-keyboard-response","47","68703","0.0-6.0-1.20","MAGA","3","f","rechts","24","","","object","f","60","true"
"null","<div style=""font-size:60px;"">+</div>","null","html-keyboard-response","48","69055","0.0-6.0-0.21","MAGA","3","f","rechts","24","","fixation","","","",""
"1558","img/120_90.png","70","image-keyboard-response","49","70614","0.0-6.0-1.21","MAGA","3","f","rechts","24","","","object","f","120","true"
"null","<div style=""font-size:60px;"">+</div>","null","html-keyboard-response","50","71116","0.0-6.0-0.22","MAGA","3","f","rechts","24","","fixation","","","",""
"1455","img/90_180.png","70","image-keyboard-response","51","72572","0.0-6.0-1.22","MAGA","3","f","rechts","24","","","object","f","90","true"
"null","<div style=""font-size:60px;"">+</div>","null","html-keyboard-response","52","72874","0.0-6.0-0.23","MAGA","3","f","rechts","24","","fixation","","","",""
"1007","img/120_330.png","74","image-keyboard-response","53","73882","0.0-6.0-1.23","MAGA","3","f","rechts","24","","","object","j","120","true"
"null","<div style=""font-size:60px;"">+</div>","null","html-keyboard-response","54","74283","0.0-6.0-0.24","MAGA","3","f","rechts","24","","fixation","","","",""
"1358","img/30_240.png","70","image-keyboard-response","55","75643","0.0-6.0-1.24","MAGA","3","f","rechts","24","","","object","f","30","true"
"null","<div style=""font-size:60px;"">+</div>","null","html-keyboard-response","56","76044","0.0-6.0-0.25","MAGA","3","f","rechts","24","","fixation","","","",""
"1412","img/30_60.png","74","image-keyboard-response","57","77457","0.0-6.0-1.25","MAGA","3","f","rechts","24","","","object","j","30","true"
"null","<div style=""font-size:60px;"">+</div>","null","html-keyboard-response","58","77909","0.0-6.0-0.26","MAGA","3","f","rechts","24","","fixation","","","",""
"744","img/0_210.png","70","image-keyboard-response","59","78653","0.0-6.0-1.26","MAGA","3","f","rechts","24","","","object","f","0","true"
"null","<div style=""font-size:60px;"">+</div>","null","html-keyboard-response","60","79054","0.0-6.0-0.27","MAGA","3","f","rechts","24","","fixation","","","",""
"954","img/30_90.png","74","image-keyboard-response","61","80008","0.0-6.0-1.27","MAGA","3","f","rechts","24","","","object","j","30","true"
"null","<div style=""font-size:60px;"">+</div>","null","html-keyboard-response","62","80409","0.0-6.0-0.28","MAGA","3","f","rechts","24","","fixation","","","",""
"664","img/0_270.png","70","image-keyboard-response","63","81075","0.0-6.0-1.28","MAGA","3","f","rechts","24","","","object","f","0","true"
"null","<div style=""font-size:60px;"">+</div>","null","html-keyboard-response","64","81476","0.0-6.0-0.29","MAGA","3","f","rechts","24","","fixation","","","",""
"837","img/60_330.png","74","image-keyboard-response","65","82314","0.0-6.0-1.29","MAGA","3","f","rechts","24","","","object","j","60","true"
"null","<div style=""font-size:60px;"">+</div>","null","html-keyboard-response","66","82666","0.0-6.0-0.30","MAGA","3","f","rechts","24","","fixation","","","",""
"1724","img/120_270.png","74","image-keyboard-response","67","84390","0.0-6.0-1.30","MAGA","3","f","rechts","24","","","object","j","120","true"
"null","<div style=""font-size:60px;"">+</div>","null","html-keyboard-response","68","84691","0.0-6.0-0.31","MAGA","3","f","rechts","24","","fixation","","","",""
"1354","img/30_270.png","70","image-keyboard-response","69","86046","0.0-6.0-1.31","MAGA","3","f","rechts","24","","","object","f","30","true"
"null","<div style=""font-size:60px;"">+</div>","null","html-keyboard-response","70","86398","0.0-6.0-0.32","MAGA","3","f","rechts","24","","fixation","","","",""
"1657","img/90_60.png","70","image-keyboard-response","71","88056","0.0-6.0-1.32","MAGA","3","f","rechts","24","","","object","f","90","true"
"null","<div style=""font-size:60px;"">+</div>","null","html-keyboard-response","72","88407","0.0-6.0-0.33","MAGA","3","f","rechts","24","","fixation","","","",""
"1124","img/L150_180.png","74","image-keyboard-response","73","89532","0.0-6.0-1.33","MAGA","3","f","rechts","24","","","object","j","150","true"
"null","<div style=""font-size:60px;"">+</div>","null","html-keyboard-response","74","90033","0.0-6.0-0.34","MAGA","3","f","rechts","24","","fixation","","","",""
"652","img/0_150.png","74","image-keyboard-response","75","90686","0.0-6.0-1.34","MAGA","3","f","rechts","24","","","object","j","0","true"
"null","<div style=""font-size:60px;"">+</div>","null","html-keyboard-response","76","91137","0.0-6.0-0.35","MAGA","3","f","rechts","24","","fixation","","","",""
"961","img/L90_180.png","74","image-keyboard-response","77","92099","0.0-6.0-1.35","MAGA","3","f","rechts","24","","","object","j","90","true"
"null","<div style=""font-size:60px;"">+</div>","null","html-keyboard-response","78","92501","0.0-6.0-0.36","MAGA","3","f","rechts","24","","fixation","","","",""
"2056","img/60_270.png","70","image-keyboard-response","79","94557","0.0-6.0-1.36","MAGA","3","f","rechts","24","","","object","f","60","true"
"null","<div style=""font-size:60px;"">+</div>","null","html-keyboard-response","80","95059","0.0-6.0-0.37","MAGA","3","f","rechts","24","","fixation","","","",""
"1301","img/60_90.png","74","image-keyboard-response","81","96360","0.0-6.0-1.37","MAGA","3","f","rechts","24","","","object","j","60","true"
"null","<div style=""font-size:60px;"">+</div>","null","html-keyboard-response","82","96862","0.0-6.0-0.38","MAGA","3","f","rechts","24","","fixation","","","",""
"1468","img/150_240.png","74","image-keyboard-response","83","98331","0.0-6.0-1.38","MAGA","3","f","rechts","24","","","object","j","150","true"
"null","<div style=""font-size:60px;"">+</div>","null","html-keyboard-response","84","98633","0.0-6.0-0.39","MAGA","3","f","rechts","24","","fixation","","","",""
"1761","img/120_210.png","70","image-keyboard-response","85","100395","0.0-6.0-1.39","MAGA","3","f","rechts","24","","","object","f","120","true"
"null","<div style=""font-size:60px;"">+</div>","null","html-keyboard-response","86","100747","0.0-6.0-0.40","MAGA","3","f","rechts","24","","fixation","","","",""
"2115","img/150_180.png","70","image-keyboard-response","87","102862","0.0-6.0-1.40","MAGA","3","f","rechts","24","","","object","f","150","true"
"null","<div style=""font-size:60px;"">+</div>","null","html-keyboard-response","88","103313","0.0-6.0-0.41","MAGA","3","f","rechts","24","","fixation","","","",""
"1063","img/L60_180.png","74","image-keyboard-response","89","104378","0.0-6.0-1.41","MAGA","3","f","rechts","24","","","object","j","60","true"
"null","<div style=""font-size:60px;"">+</div>","null","html-keyboard-response","90","104879","0.0-6.0-0.42","MAGA","3","f","rechts","24","","fixation","","","",""
"1434","img/150_120.png","70","image-keyboard-response","91","106315","0.0-6.0-1.42","MAGA","3","f","rechts","24","","","object","f","150","true"
"null","<div style=""font-size:60px;"">+</div>","null","html-keyboard-response","92","106766","0.0-6.0-0.43","MAGA","3","f","rechts","24","","fixation","","","",""
"883","img/150_60.png","70","image-keyboard-response","93","107650","0.0-6.0-1.43","MAGA","3","f","rechts","24","","","object","f","150","true"
"null","<div style=""font-size:60px;"">+</div>","null","html-keyboard-response","94","108052","0.0-6.0-0.44","MAGA","3","f","rechts","24","","fixation","","","",""
"1642","img/120_150.png","74","image-keyboard-response","95","109696","0.0-6.0-1.44","MAGA","3","f","rechts","24","","","object","j","120","true"
"null","<div style=""font-size:60px;"">+</div>","null","html-keyboard-response","96","110197","0.0-6.0-0.45","MAGA","3","f","rechts","24","","fixation","","","",""
"2019","img/150_90.png","74","image-keyboard-response","97","112218","0.0-6.0-1.45","MAGA","3","f","rechts","24","","","object","f","150","false"
"null","<div style=""font-size:60px;"">+</div>","null","html-keyboard-response","98","112519","0.0-6.0-0.46","MAGA","3","f","rechts","24","","fixation","","","",""
"1506","img/150_270.png","74","image-keyboard-response","99","114027","0.0-6.0-1.46","MAGA","3","f","rechts","24","","","object","j","150","true"
"null","<div style=""font-size:60px;"">+</div>","null","html-keyboard-response","100","114378","0.0-6.0-0.47","MAGA","3","f","rechts","24","","fixation","","","",""
"1565","img/90_210.png","70","image-keyboard-response","101","115945","0.0-6.0-1.47","MAGA","3","f","rechts","24","","","object","f","90","true"
"null","<div style=""font-size:60px;"">+</div>","null","html-keyboard-response","102","116396","0.0-6.0-0.48","MAGA","3","f","rechts","24","","fixation","","","",""
"925","img/90_30.png","70","image-keyboard-response","103","117323","0.0-6.0-1.48","MAGA","3","f","rechts","24","","","object","f","90","true"
"null","<div style=""font-size:60px;"">+</div>","null","html-keyboard-response","104","117624","0.0-6.0-0.49","MAGA","3","f","rechts","24","","fixation","","","",""
"701","img/120_30.png","70","image-keyboard-response","105","118327","0.0-6.0-1.49","MAGA","3","f","rechts","24","","","object","f","120","true"
"null","<div style=""font-size:60px;"">+</div>","null","html-keyboard-response","106","118778","0.0-6.0-0.50","MAGA","3","f","rechts","24","","fixation","","","",""
"832","img/0_300.png","70","image-keyboard-response","107","119611","0.0-6.0-1.50","MAGA","3","f","rechts","24","","","object","f","0","true"
"null","<div style=""font-size:60px;"">+</div>","null","html-keyboard-response","108","120063","0.0-6.0-0.51","MAGA","3","f","rechts","24","","fixation","","","",""
"1072","img/60_180.png","70","image-keyboard-response","109","121136","0.0-6.0-1.51","MAGA","3","f","rechts","24","","","object","f","60","true"
"null","<div style=""font-size:60px;"">+</div>","null","html-keyboard-response","110","121638","0.0-6.0-0.52","MAGA","3","f","rechts","24","","fixation","","","",""
"1250","img/150_180.png","70","image-keyboard-response","111","122889","0.0-6.0-1.52","MAGA","3","f","rechts","24","","","object","f","150","true"
"null","<div style=""font-size:60px;"">+</div>","null","html-keyboard-response","112","123391","0.0-6.0-0.53","MAGA","3","f","rechts","24","","fixation","","","",""
"729","img/0_90.png","74","image-keyboard-response","113","124121","0.0-6.0-1.53","MAGA","3","f","rechts","24","","","object","j","0","true"
"null","<div style=""font-size:60px;"">+</div>","null","html-keyboard-response","114","124423","0.0-6.0-0.54","MAGA","3","f","rechts","24","","fixation","","","",""
"848","img/60_30.png","70","image-keyboard-response","115","125272","0.0-6.0-1.54","MAGA","3","f","rechts","24","","","object","f","60","true"
"null","<div style=""font-size:60px;"">+</div>","null","html-keyboard-response","116","125574","0.0-6.0-0.55","MAGA","3","f","rechts","24","","fixation","","","",""
"976","img/L60_180.png","74","image-keyboard-response","117","126551","0.0-6.0-1.55","MAGA","3","f","rechts","24","","","object","j","60","true"
"null","<div style=""font-size:60px;"">+</div>","null","html-keyboard-response","118","127053","0.0-6.0-0.56","MAGA","3","f","rechts","24","","fixation","","","",""
"832","img/60_210.png","70","image-keyboard-response","119","127886","0.0-6.0-1.56","MAGA","3","f","rechts","24","","","object","f","60","true"
"null","<div style=""font-size:60px;"">+</div>","null","html-keyboard-response","120","128188","0.0-6.0-0.57","MAGA","3","f","rechts","24","","fixation","","","",""
"692","img/0_30.png","74","image-keyboard-response","121","128880","0.0-6.0-1.57","MAGA","3","f","rechts","24","","","object","j","0","true"
"null","<div style=""font-size:60px;"">+</div>","null","html-keyboard-response","122","129182","0.0-6.0-0.58","MAGA","3","f","rechts","24","","fixation","","","",""
"849","img/60_180.png","70","image-keyboard-response","123","130032","0.0-6.0-1.58","MAGA","3","f","rechts","24","","","object","f","60","true"
"null","<div style=""font-size:60px;"">+</div>","null","html-keyboard-response","124","130534","0.0-6.0-0.59","MAGA","3","f","rechts","24","","fixation","","","",""
"837","img/90_150.png","74","image-keyboard-response","125","131372","0.0-6.0-1.59","MAGA","3","f","rechts","24","","","object","j","90","true"
"null","<div style=""font-size:60px;"">+</div>","null","html-keyboard-response","126","131874","0.0-6.0-0.60","MAGA","3","f","rechts","24","","fixation","","","",""
"588","img/0_240.png","70","image-keyboard-response","127","132463","0.0-6.0-1.60","MAGA","3","f","rechts","24","","","object","f","0","true"
"null","<div style=""font-size:60px;"">+</div>","null","html-keyboard-response","128","132915","0.0-6.0-0.61","MAGA","3","f","rechts","24","","fixation","","","",""
"898","img/L120_180.png","74","image-keyboard-response","129","133814","0.0-6.0-1.61","MAGA","3","f","rechts","24","","","object","j","120","true"
"null","<div style=""font-size:60px;"">+</div>","null","html-keyboard-response","130","134116","0.0-6.0-0.62","MAGA","3","f","rechts","24","","fixation","","","",""
"1074","img/90_120.png","74","image-keyboard-response","131","135191","0.0-6.0-1.62","MAGA","3","f","rechts","24","","","object","j","90","true"
"null","<div style=""font-size:60px;"">+</div>","null","html-keyboard-response","132","135643","0.0-6.0-0.63","MAGA","3","f","rechts","24","","fixation","","","",""
"853","img/90_330.png","74","image-keyboard-response","133","136496","0.0-6.0-1.63","MAGA","3","f","rechts","24","","","object","j","90","true"
"null","<div style=""font-size:60px;"">+</div>","null","html-keyboard-response","134","136998","0.0-6.0-0.64","MAGA","3","f","rechts","24","","fixation","","","",""
"766","img/120_180.png","70","image-keyboard-response","135","137764","0.0-6.0-1.64","MAGA","3","f","rechts","24","","","object","f","120","true"
"null","<div style=""font-size:60px;"">+</div>","null","html-keyboard-response","136","138166","0.0-6.0-0.65","MAGA","3","f","rechts","24","","fixation","","","",""
"1831","img/60_270.png","74","image-keyboard-response","137","139998","0.0-6.0-1.65","MAGA","3","f","rechts","24","","","object","f","60","false"
"null","<div style=""font-size:60px;"">+</div>","null","html-keyboard-response","138","140500","0.0-6.0-0.66","MAGA","3","f","rechts","24","","fixation","","","",""
"989","img/150_270.png","74","image-keyboard-response","139","141490","0.0-6.0-1.66","MAGA","3","f","rechts","24","","","object","j","150","true"
"null","<div style=""font-size:60px;"">+</div>","null","html-keyboard-response","140","141992","0.0-6.0-0.67","MAGA","3","f","rechts","24","","fixation","","","",""
"994","img/120_90.png","70","image-keyboard-response","141","142986","0.0-6.0-1.67","MAGA","3","f","rechts","24","","","object","f","120","true"
"null","<div style=""font-size:60px;"">+</div>","null","html-keyboard-response","142","143438","0.0-6.0-0.68","MAGA","3","f","rechts","24","","fixation","","","",""
"818","img/120_270.png","74","image-keyboard-response","143","144256","0.0-6.0-1.68","MAGA","3","f","rechts","24","","","object","j","120","true"
"null","<div style=""font-size:60px;"">+</div>","null","html-keyboard-response","144","144707","0.0-6.0-0.69","MAGA","3","f","rechts","24","","fixation","","","",""
"1065","img/120_330.png","74","image-keyboard-response","145","145772","0.0-6.0-1.69","MAGA","3","f","rechts","24","","","object","j","120","true"
"null","<div style=""font-size:60px;"">+</div>","null","html-keyboard-response","146","146123","0.0-6.0-0.70","MAGA","3","f","rechts","24","","fixation","","","",""
"744","img/0_330.png","70","image-keyboard-response","147","146867","0.0-6.0-1.70","MAGA","3","f","rechts","24","","","object","f","0","true"
"null","<div style=""font-size:60px;"">+</div>","null","html-keyboard-response","148","147268","0.0-6.0-0.71","MAGA","3","f","rechts","24","","fixation","","","",""
"927","img/150_90.png","70","image-keyboard-response","149","148196","0.0-6.0-1.71","MAGA","3","f","rechts","24","","","object","f","150","true"
"null","<div style=""font-size:60px;"">+</div>","null","html-keyboard-response","150","148697","0.0-6.0-0.72","MAGA","3","f","rechts","24","","fixation","","","",""
"1774","img/120_150.png","74","image-keyboard-response","151","150473","0.0-6.0-1.72","MAGA","3","f","rechts","24","","","object","j","120","true"
"null","<div style=""font-size:60px;"">+</div>","null","html-keyboard-response","152","150924","0.0-6.0-0.73","MAGA","3","f","rechts","24","","fixation","","","",""
"1070","img/30_90.png","74","image-keyboard-response","153","151995","0.0-6.0-1.73","MAGA","3","f","rechts","24","","","object","j","30","true"
"null","<div style=""font-size:60px;"">+</div>","null","html-keyboard-response","154","152447","0.0-6.0-0.74","MAGA","3","f","rechts","24","","fixation","","","",""
"818","img/150_60.png","70","image-keyboard-response","155","153265","0.0-6.0-1.74","MAGA","3","f","rechts","24","","","object","f","150","true"
"null","<div style=""font-size:60px;"">+</div>","null","html-keyboard-response","156","153717","0.0-6.0-0.75","MAGA","3","f","rechts","24","","fixation","","","",""
"1723","img/30_60.png","74","image-keyboard-response","157","155440","0.0-6.0-1.75","MAGA","3","f","rechts","24","","","object","j","30","true"
"null","<div style=""font-size:60px;"">+</div>","null","html-keyboard-response","158","155892","0.0-6.0-0.76","MAGA","3","f","rechts","24","","fixation","","","",""
"816","img/30_240.png","70","image-keyboard-response","159","156708","0.0-6.0-1.76","MAGA","3","f","rechts","24","","","object","f","30","true"
"null","<div style=""font-size:60px;"">+</div>","null","html-keyboard-response","160","157010","0.0-6.0-0.77","MAGA","3","f","rechts","24","","fixation","","","",""
"1073","img/0_60.png","74","image-keyboard-response","161","158083","0.0-6.0-1.77","MAGA","3","f","rechts","24","","","object","j","0","true"
"null","<div style=""font-size:60px;"">+</div>","null","html-keyboard-response","162","158585","0.0-6.0-0.78","MAGA","3","f","rechts","24","","fixation","","","",""
"773","img/120_30.png","70","image-keyboard-response","163","159360","0.0-6.0-1.78","MAGA","3","f","rechts","24","","","object","f","120","true"
"null","<div style=""font-size:60px;"">+</div>","null","html-keyboard-response","164","159811","0.0-6.0-0.79","MAGA","3","f","rechts","24","","fixation","","","",""
"1719","img/120_210.png","70","image-keyboard-response","165","161531","0.0-6.0-1.79","MAGA","3","f","rechts","24","","","object","f","120","true"
"null","<div style=""font-size:60px;"">+</div>","null","html-keyboard-response","166","162033","0.0-6.0-0.80","MAGA","3","f","rechts","24","","fixation","","","",""
"976","img/150_300.png","74","image-keyboard-response","167","163011","0.0-6.0-1.80","MAGA","3","f","rechts","24","","","object","j","150","true"
"null","<div style=""font-size:60px;"">+</div>","null","html-keyboard-response","168","163462","0.0-6.0-0.81","MAGA","3","f","rechts","24","","fixation","","","",""
"643","img/0_300.png","70","image-keyboard-response","169","164107","0.0-6.0-1.81","MAGA","3","f","rechts","24","","","object","f","0","true"
"null","<div style=""font-size:60px;"">+</div>","null","html-keyboard-response","170","164608","0.0-6.0-0.82","MAGA","3","f","rechts","24","","fixation","","","",""
"928","img/30_120.png","74","image-keyboard-response","171","165538","0.0-6.0-1.82","MAGA","3","f","rechts","24","","","object","j","30","true"
"null","<div style=""font-size:60px;"">+</div>","null","html-keyboard-response","172","165939","0.0-6.0-0.83","MAGA","3","f","rechts","24","","fixation","","","",""
"987","img/0_120.png","74","image-keyboard-response","173","166927","0.0-6.0-1.83","MAGA","3","f","rechts","24","","","object","j","0","true"
"null","<div style=""font-size:60px;"">+</div>","null","html-keyboard-response","174","167279","0.0-6.0-0.84","MAGA","3","f","rechts","24","","fixation","","","",""
"616","img/0_270.png","70","image-keyboard-response","175","167896","0.0-6.0-1.84","MAGA","3","f","rechts","24","","","object","f","0","true"
"null","<div style=""font-size:60px;"">+</div>","null","html-keyboard-response","176","168398","0.0-6.0-0.85","MAGA","3","f","rechts","24","","fixation","","","",""
"835","img/90_60.png","70","image-keyboard-response","177","169235","0.0-6.0-1.85","MAGA","3","f","rechts","24","","","object","f","90","true"
"null","<div style=""font-size:60px;"">+</div>","null","html-keyboard-response","178","169586","0.0-6.0-0.86","MAGA","3","f","rechts","24","","fixation","","","",""
"1130","img/60_90.png","74","image-keyboard-response","179","170717","0.0-6.0-1.86","MAGA","3","f","rechts","24","","","object","j","60","true"
"null","<div style=""font-size:60px;"">+</div>","null","html-keyboard-response","180","171069","0.0-6.0-0.87","MAGA","3","f","rechts","24","","fixation","","","",""
"1759","img/90_240.png","70","image-keyboard-response","181","172829","0.0-6.0-1.87","MAGA","3","f","rechts","24","","","object","f","90","true"
"null","<div style=""font-size:60px;"">+</div>","null","html-keyboard-response","182","173231","0.0-6.0-0.88","MAGA","3","f","rechts","24","","fixation","","","",""
"1592","img/90_210.png","70","image-keyboard-response","183","174824","0.0-6.0-1.88","MAGA","3","f","rechts","24","","","object","f","90","true"
"null","<div style=""font-size:60px;"">+</div>","null","html-keyboard-response","184","175276","0.0-6.0-0.89","MAGA","3","f","rechts","24","","fixation","","","",""
"1510","img/90_180.png","70","image-keyboard-response","185","176786","0.0-6.0-1.89","MAGA","3","f","rechts","24","","","object","f","90","true"
"null","<div style=""font-size:60px;"">+</div>","null","html-keyboard-response","186","177138","0.0-6.0-0.90","MAGA","3","f","rechts","24","","fixation","","","",""
"1488","img/150_240.png","74","image-keyboard-response","187","178626","0.0-6.0-1.90","MAGA","3","f","rechts","24","","","object","j","150","true"
"null","<div style=""font-size:60px;"">+</div>","null","html-keyboard-response","188","179128","0.0-6.0-0.91","MAGA","3","f","rechts","24","","fixation","","","",""
"1976","img/150_120.png","70","image-keyboard-response","189","181105","0.0-6.0-1.91","MAGA","3","f","rechts","24","","","object","f","150","true"
"null","<div style=""font-size:60px;"">+</div>","null","html-keyboard-response","190","181557","0.0-6.0-0.92","MAGA","3","f","rechts","24","","fixation","","","",""
"818","img/90_300.png","74","image-keyboard-response","191","182376","0.0-6.0-1.92","MAGA","3","f","rechts","24","","","object","j","90","true"
"null","<div style=""font-size:60px;"">+</div>","null","html-keyboard-response","192","182778","0.0-6.0-0.93","MAGA","3","f","rechts","24","","fixation","","","",""
"659","img/60_330.png","74","image-keyboard-response","193","183437","0.0-6.0-1.93","MAGA","3","f","rechts","24","","","object","j","60","true"
"null","<div style=""font-size:60px;"">+</div>","null","html-keyboard-response","194","183889","0.0-6.0-0.94","MAGA","3","f","rechts","24","","fixation","","","",""
"1072","img/30_270.png","70","image-keyboard-response","195","184961","0.0-6.0-1.94","MAGA","3","f","rechts","24","","","object","f","30","true"
"null","<div style=""font-size:60px;"">+</div>","null","html-keyboard-response","196","185313","0.0-6.0-0.95","MAGA","3","f","rechts","24","","fixation","","","",""
"731","img/30_300.png","70","image-keyboard-response","197","186044","0.0-6.0-1.95","MAGA","3","f","rechts","24","","","object","f","30","true"
"null","<div style=""font-size:60px;"">+</div>","null","html-keyboard-response","198","186496","0.0-6.0-0.96","MAGA","3","f","rechts","24","","fixation","","","",""
"843","img/L90_180.png","74","image-keyboard-response","199","187339","0.0-6.0-1.96","MAGA","3","f","rechts","24","","","object","j","90","true"
"null","<div style=""font-size:60px;"">+</div>","null","html-keyboard-response","200","187691","0.0-6.0-0.97","MAGA","3","f","rechts","24","","fixation","","","",""
"763","img/L150_180.png","74","image-keyboard-response","201","188454","0.0-6.0-1.97","MAGA","3","f","rechts","24","","","object","j","150","true"
"null","<div style=""font-size:60px;"">+</div>","null","html-keyboard-response","202","188856","0.0-6.0-0.98","MAGA","3","f","rechts","24","","fixation","","","",""
"1085","img/L30_180.png","74","image-keyboard-response","203","189941","0.0-6.0-1.98","MAGA","3","f","rechts","24","","","object","j","30","true"
"null","<div style=""font-size:60px;"">+</div>","null","html-keyboard-response","204","190242","0.0-6.0-0.99","MAGA","3","f","rechts","24","","fixation","","","",""
"712","img/0_150.png","74","image-keyboard-response","205","190954","0.0-6.0-1.99","MAGA","3","f","rechts","24","","","object","j","0","true"
"null","<div style=""font-size:60px;"">+</div>","null","html-keyboard-response","206","191255","0.0-6.0-0.100","MAGA","3","f","rechts","24","","fixation","","","",""
"1092","img/60_150.png","74","image-keyboard-response","207","192348","0.0-6.0-1.100","MAGA","3","f","rechts","24","","","object","j","60","true"
"null","<div style=""font-size:60px;"">+</div>","null","html-keyboard-response","208","192849","0.0-6.0-0.101","MAGA","3","f","rechts","24","","fixation","","","",""
"636","img/0_210.png","70","image-keyboard-response","209","193486","0.0-6.0-1.101","MAGA","3","f","rechts","24","","","object","f","0","true"
"null","<div style=""font-size:60px;"">+</div>","null","html-keyboard-response","210","193937","0.0-6.0-0.102","MAGA","3","f","rechts","24","","fixation","","","",""
"856","img/90_30.png","70","image-keyboard-response","211","194794","0.0-6.0-1.102","MAGA","3","f","rechts","24","","","object","f","90","true"
"null","<div style=""font-size:60px;"">+</div>","null","html-keyboard-response","212","195296","0.0-6.0-0.103","MAGA","3","f","rechts","24","","fixation","","","",""
"636","img/30_180.png","74","image-keyboard-response","213","195932","0.0-6.0-1.103","MAGA","3","f","rechts","24","","","object","f","30","false"
"null","<div style=""font-size:60px;"">+</div>","null","html-keyboard-response","214","196384","0.0-6.0-0.104","MAGA","3","f","rechts","24","","fixation","","","",""
"1084","img/L60_180.png","74","image-keyboard-response","215","197468","0.0-6.0-1.104","MAGA","3","f","rechts","24","","","object","j","60","true"
"null","<div style=""font-size:60px;"">+</div>","null","html-keyboard-response","216","197969","0.0-6.0-0.105","MAGA","3","f","rechts","24","","fixation","","","",""
"611","img/0_30.png","74","image-keyboard-response","217","198581","0.0-6.0-1.105","MAGA","3","f","rechts","24","","","object","j","0","true"
"null","<div style=""font-size:60px;"">+</div>","null","html-keyboard-response","218","198933","0.0-6.0-0.106","MAGA","3","f","rechts","24","","fixation","","","",""
"1244","img/150_300.png","74","image-keyboard-response","219","200178","0.0-6.0-1.106","MAGA","3","f","rechts","24","","","object","j","150","true"
"null","<div style=""font-size:60px;"">+</div>","null","html-keyboard-response","220","200679","0.0-6.0-0.107","MAGA","3","f","rechts","24","","fixation","","","",""
"685","img/90_30.png","70","image-keyboard-response","221","201365","0.0-6.0-1.107","MAGA","3","f","rechts","24","","","object","f","90","true"
"null","<div style=""font-size:60px;"">+</div>","null","html-keyboard-response","222","201867","0.0-6.0-0.108","MAGA","3","f","rechts","24","","fixation","","","",""
"786","img/60_270.png","74","image-keyboard-response","223","202653","0.0-6.0-1.108","MAGA","3","f","rechts","24","","","object","f","60","false"
"null","<div style=""font-size:60px;"">+</div>","null","html-keyboard-response","224","203104","0.0-6.0-0.109","MAGA","3","f","rechts","24","","fixation","","","",""
"813","img/120_270.png","74","image-keyboard-response","225","203918","0.0-6.0-1.109","MAGA","3","f","rechts","24","","","object","j","120","true"
"null","<div style=""font-size:60px;"">+</div>","null","html-keyboard-response","226","204219","0.0-6.0-0.110","MAGA","3","f","rechts","24","","fixation","","","",""
"1625","img/L120_180.png","70","image-keyboard-response","227","205845","0.0-6.0-1.110","MAGA","3","f","rechts","24","","","object","j","120","false"
"null","<div style=""font-size:60px;"">+</div>","null","html-keyboard-response","228","206196","0.0-6.0-0.111","MAGA","3","f","rechts","24","","fixation","","","",""
"1044","img/L90_180.png","74","image-keyboard-response","229","207242","0.0-6.0-1.111","MAGA","3","f","rechts","24","","","object","j","90","true"
"null","<div style=""font-size:60px;"">+</div>","null","html-keyboard-response","230","207643","0.0-6.0-0.112","MAGA","3","f","rechts","24","","fixation","","","",""
"995","img/90_330.png","74","image-keyboard-response","231","208638","0.0-6.0-1.112","MAGA","3","f","rechts","24","","","object","j","90","true"
"null","<div style=""font-size:60px;"">+</div>","null","html-keyboard-response","232","208990","0.0-6.0-0.113","MAGA","3","f","rechts","24","","fixation","","","",""
"874","img/0_270.png","70","image-keyboard-response","233","209864","0.0-6.0-1.113","MAGA","3","f","rechts","24","","","object","f","0","true"
"null","<div style=""font-size:60px;"">+</div>","null","html-keyboard-response","234","210165","0.0-6.0-0.114","MAGA","3","f","rechts","24","","fixation","","","",""
"1138","img/30_180.png","70","image-keyboard-response","235","211305","0.0-6.0-1.114","MAGA","3","f","rechts","24","","","object","f","30","true"
"null","<div style=""font-size:60px;"">+</div>","null","html-keyboard-response","236","211706","0.0-6.0-0.115","MAGA","3","f","rechts","24","","fixation","","","",""
"1008","img/150_180.png","70","image-keyboard-response","237","212715","0.0-6.0-1.115","MAGA","3","f","rechts","24","","","object","f","150","true"
"null","<div style=""font-size:60px;"">+</div>","null","html-keyboard-response","238","213117","0.0-6.0-0.116","MAGA","3","f","rechts","24","","fixation","","","",""
"1319","img/30_300.png","70","image-keyboard-response","239","214437","0.0-6.0-1.116","MAGA","3","f","rechts","24","","","object","f","30","true"
"null","<div style=""font-size:60px;"">+</div>","null","html-keyboard-response","240","214888","0.0-6.0-0.117","MAGA","3","f","rechts","24","","fixation","","","",""
"707","img/30_90.png","74","image-keyboard-response","241","215597","0.0-6.0-1.117","MAGA","3","f","rechts","24","","","object","j","30","true"
"null","<div style=""font-size:60px;"">+</div>","null","html-keyboard-response","242","215948","0.0-6.0-0.118","MAGA","3","f","rechts","24","","fixation","","","",""
"1835","img/90_120.png","74","image-keyboard-response","243","217785","0.0-6.0-1.118","MAGA","3","f","rechts","24","","","object","j","90","true"
"null","<div style=""font-size:60px;"">+</div>","null","html-keyboard-response","244","218086","0.0-6.0-0.119","MAGA","3","f","rechts","24","","fixation","","","",""
"1435","img/90_210.png","70","image-keyboard-response","245","219522","0.0-6.0-1.119","MAGA","3","f","rechts","24","","","object","f","90","true"
"null","<div style=""font-size:60px;"">+</div>","null","html-keyboard-response","246","219874","0.0-6.0-0.120","MAGA","3","f","rechts","24","","fixation","","","",""
"1863","img/150_240.png","74","image-keyboard-response","247","221738","0.0-6.0-1.120","MAGA","3","f","rechts","24","","","object","j","150","true"
"null","<div style=""font-size:60px;"">+</div>","null","html-keyboard-response","248","222139","0.0-6.0-0.121","MAGA","3","f","rechts","24","","fixation","","","",""
"1449","img/120_210.png","70","image-keyboard-response","249","223589","0.0-6.0-1.121","MAGA","3","f","rechts","24","","","object","f","120","true"
"null","<div style=""font-size:60px;"">+</div>","null","html-keyboard-response","250","224041","0.0-6.0-0.122","MAGA","3","f","rechts","24","","fixation","","","",""
"1499","img/L150_180.png","74","image-keyboard-response","251","225541","0.0-6.0-1.122","MAGA","3","f","rechts","24","","","object","j","150","true"
"null","<div style=""font-size:60px;"">+</div>","null","html-keyboard-response","252","225843","0.0-6.0-0.123","MAGA","3","f","rechts","24","","fixation","","","",""
"1003","img/60_330.png","74","image-keyboard-response","253","226847","0.0-6.0-1.123","MAGA","3","f","rechts","24","","","object","j","60","true"
"null","<div style=""font-size:60px;"">+</div>","null","html-keyboard-response","254","227249","0.0-6.0-0.124","MAGA","3","f","rechts","24","","fixation","","","",""
"733","img/0_300.png","70","image-keyboard-response","255","227982","0.0-6.0-1.124","MAGA","3","f","rechts","24","","","object","f","0","true"
"null","<div style=""font-size:60px;"">+</div>","null","html-keyboard-response","256","228434","0.0-6.0-0.125","MAGA","3","f","rechts","24","","fixation","","","",""
"911","img/150_270.png","74","image-keyboard-response","257","229346","0.0-6.0-1.125","MAGA","3","f","rechts","24","","","object","j","150","true"
"null","<div style=""font-size:60px;"">+</div>","null","html-keyboard-response","258","229798","0.0-6.0-0.126","MAGA","3","f","rechts","24","","fixation","","","",""
"645","img/0_60.png","74","image-keyboard-response","259","230444","0.0-6.0-1.126","MAGA","3","f","rechts","24","","","object","j","0","true"
"null","<div style=""font-size:60px;"">+</div>","null","html-keyboard-response","260","230746","0.0-6.0-0.127","MAGA","3","f","rechts","24","","fixation","","","",""
"753","img/30_270.png","70","image-keyboard-response","261","231501","0.0-6.0-1.127","MAGA","3","f","rechts","24","","","object","f","30","true"
"null","<div style=""font-size:60px;"">+</div>","null","html-keyboard-response","262","231952","0.0-6.0-0.128","MAGA","3","f","rechts","24","","fixation","","","",""
"676","img/30_240.png","70","image-keyboard-response","263","232629","0.0-6.0-1.128","MAGA","3","f","rechts","24","","","object","f","30","true"
"null","<div style=""font-size:60px;"">+</div>","null","html-keyboard-response","264","232931","0.0-6.0-0.129","MAGA","3","f","rechts","24","","fixation","","","",""
"757","img/90_300.png","74","image-keyboard-response","265","233689","0.0-6.0-1.129","MAGA","3","f","rechts","24","","","object","j","90","true"
"null","<div style=""font-size:60px;"">+</div>","null","html-keyboard-response","266","234041","0.0-6.0-0.130","MAGA","3","f","rechts","24","","fixation","","","",""
"755","img/60_150.png","74","image-keyboard-response","267","234797","0.0-6.0-1.130","MAGA","3","f","rechts","24","","","object","j","60","true"
"null","<div style=""font-size:60px;"">+</div>","null","html-keyboard-response","268","235149","0.0-6.0-0.131","MAGA","3","f","rechts","24","","fixation","","","",""
"671","img/0_330.png","70","image-keyboard-response","269","235821","0.0-6.0-1.131","MAGA","3","f","rechts","24","","","object","f","0","true"
"null","<div style=""font-size:60px;"">+</div>","null","html-keyboard-response","270","236273","0.0-6.0-0.132","MAGA","3","f","rechts","24","","fixation","","","",""
"721","img/L30_180.png","74","image-keyboard-response","271","236994","0.0-6.0-1.132","MAGA","3","f","rechts","24","","","object","j","30","true"
"null","<div style=""font-size:60px;"">+</div>","null","html-keyboard-response","272","237496","0.0-6.0-0.133","MAGA","3","f","rechts","24","","fixation","","","",""
"827","img/90_180.png","70","image-keyboard-response","273","238324","0.0-6.0-1.133","MAGA","3","f","rechts","24","","","object","f","90","true"
"null","<div style=""font-size:60px;"">+</div>","null","html-keyboard-response","274","238676","0.0-6.0-0.134","MAGA","3","f","rechts","24","","fixation","","","",""
"752","img/60_210.png","70","image-keyboard-response","275","239428","0.0-6.0-1.134","MAGA","3","f","rechts","24","","","object","f","60","true"
"null","<div style=""font-size:60px;"">+</div>","null","html-keyboard-response","276","239879","0.0-6.0-0.135","MAGA","3","f","rechts","24","","fixation","","","",""
"2366","img/150_120.png","70","image-keyboard-response","277","242246","0.0-6.0-1.135","MAGA","3","f","rechts","24","","","object","f","150","true"
"null","<div style=""font-size:60px;"">+</div>","null","html-keyboard-response","278","242548","0.0-6.0-0.136","MAGA","3","f","rechts","24","","fixation","","","",""
"1063","img/120_180.png","70","image-keyboard-response","279","243612","0.0-6.0-1.136","MAGA","3","f","rechts","24","","","object","f","120","true"
"null","<div style=""font-size:60px;"">+</div>","null","html-keyboard-response","280","243914","0.0-6.0-0.137","MAGA","3","f","rechts","24","","fixation","","","",""
"1688","img/120_90.png","70","image-keyboard-response","281","245602","0.0-6.0-1.137","MAGA","3","f","rechts","24","","","object","f","120","true"
"null","<div style=""font-size:60px;"">+</div>","null","html-keyboard-response","282","246104","0.0-6.0-0.138","MAGA","3","f","rechts","24","","fixation","","","",""
"700","img/0_210.png","70","image-keyboard-response","283","246804","0.0-6.0-1.138","MAGA","3","f","rechts","24","","","object","f","0","true"
"null","<div style=""font-size:60px;"">+</div>","null","html-keyboard-response","284","247106","0.0-6.0-0.139","MAGA","3","f","rechts","24","","fixation","","","",""
"753","img/120_150.png","74","image-keyboard-response","285","247860","0.0-6.0-1.139","MAGA","3","f","rechts","24","","","object","j","120","true"
"null","<div style=""font-size:60px;"">+</div>","null","html-keyboard-response","286","248361","0.0-6.0-0.140","MAGA","3","f","rechts","24","","fixation","","","",""
"720","img/60_30.png","70","image-keyboard-response","287","249082","0.0-6.0-1.140","MAGA","3","f","rechts","24","","","object","f","60","true"
"null","<div style=""font-size:60px;"">+</div>","null","html-keyboard-response","288","249433","0.0-6.0-0.141","MAGA","3","f","rechts","24","","fixation","","","",""
"1428","img/150_60.png","70","image-keyboard-response","289","250862","0.0-6.0-1.141","MAGA","3","f","rechts","24","","","object","f","150","true"
"null","<div style=""font-size:60px;"">+</div>","null","html-keyboard-response","290","251314","0.0-6.0-0.142","MAGA","3","f","rechts","24","","fixation","","","",""
"640","img/0_240.png","70","image-keyboard-response","291","251956","0.0-6.0-1.142","MAGA","3","f","rechts","24","","","object","f","0","true"
"null","<div style=""font-size:60px;"">+</div>","null","html-keyboard-response","292","252457","0.0-6.0-0.143","MAGA","3","f","rechts","24","","fixation","","","",""
"925","img/60_90.png","74","image-keyboard-response","293","253384","0.0-6.0-1.143","MAGA","3","f","rechts","24","","","object","j","60","true"
"null","<div style=""font-size:60px;"">+</div>","null","html-keyboard-response","294","253735","0.0-6.0-0.144","MAGA","3","f","rechts","24","","fixation","","","",""
"630","img/0_120.png","74","image-keyboard-response","295","254366","0.0-6.0-1.144","MAGA","3","f","rechts","24","","","object","j","0","true"
"null","<div style=""font-size:60px;"">+</div>","null","html-keyboard-response","296","254818","0.0-6.0-0.145","MAGA","3","f","rechts","24","","fixation","","","",""
"781","img/120_330.png","74","image-keyboard-response","297","255600","0.0-6.0-1.145","MAGA","3","f","rechts","24","","","object","j","120","true"
"null","<div style=""font-size:60px;"">+</div>","null","html-keyboard-response","298","256102","0.0-6.0-0.146","MAGA","3","f","rechts","24","","fixation","","","",""
"757","img/120_30.png","70","image-keyboard-response","299","256859","0.0-6.0-1.146","MAGA","3","f","rechts","24","","","object","f","120","true"
"null","<div style=""font-size:60px;"">+</div>","null","html-keyboard-response","300","257261","0.0-6.0-0.147","MAGA","3","f","rechts","24","","fixation","","","",""
"1173","img/90_60.png","70","image-keyboard-response","301","258434","0.0-6.0-1.147","MAGA","3","f","rechts","24","","","object","f","90","true"
"null","<div style=""font-size:60px;"">+</div>","null","html-keyboard-response","302","258736","0.0-6.0-0.148","MAGA","3","f","rechts","24","","fixation","","","",""
"1621","img/90_240.png","74","image-keyboard-response","303","260358","0.0-6.0-1.148","MAGA","3","f","rechts","24","","","object","f","90","false"
"null","<div style=""font-size:60px;"">+</div>","null","html-keyboard-response","304","260809","0.0-6.0-0.149","MAGA","3","f","rechts","24","","fixation","","","",""
"1903","img/150_90.png","70","image-keyboard-response","305","262714","0.0-6.0-1.149","MAGA","3","f","rechts","24","","","object","f","150","true"
"null","<div style=""font-size:60px;"">+</div>","null","html-keyboard-response","306","263065","0.0-6.0-0.150","MAGA","3","f","rechts","24","","fixation","","","",""
"826","img/30_120.png","74","image-keyboard-response","307","263892","0.0-6.0-1.150","MAGA","3","f","rechts","24","","","object","j","30","true"
"null","<div style=""font-size:60px;"">+</div>","null","html-keyboard-response","308","264293","0.0-6.0-0.151","MAGA","3","f","rechts","24","","fixation","","","",""
"1101","img/90_150.png","74","image-keyboard-response","309","265396","0.0-6.0-1.151","MAGA","3","f","rechts","24","","","object","j","90","true"
"null","<div style=""font-size:60px;"">+</div>","null","html-keyboard-response","310","265747","0.0-6.0-0.152","MAGA","3","f","rechts","24","","fixation","","","",""
"652","img/0_150.png","74","image-keyboard-response","311","266400","0.0-6.0-1.152","MAGA","3","f","rechts","24","","","object","j","0","true"
"null","<div style=""font-size:60px;"">+</div>","null","html-keyboard-response","312","266752","0.0-6.0-0.153","MAGA","3","f","rechts","24","","fixation","","","",""
"588","img/0_90.png","74","image-keyboard-response","313","267340","0.0-6.0-1.153","MAGA","3","f","rechts","24","","","object","j","0","true"
"null","<div style=""font-size:60px;"">+</div>","null","html-keyboard-response","314","267841","0.0-6.0-0.154","MAGA","3","f","rechts","24","","fixation","","","",""
"654","img/60_180.png","70","image-keyboard-response","315","268496","0.0-6.0-1.154","MAGA","3","f","rechts","24","","","object","f","60","true"
"null","<div style=""font-size:60px;"">+</div>","null","html-keyboard-response","316","268998","0.0-6.0-0.155","MAGA","3","f","rechts","24","","fixation","","","",""
"1516","img/30_60.png","70","image-keyboard-response","317","270516","0.0-6.0-1.155","MAGA","3","f","rechts","24","","","object","j","30","false"
"null","<div style=""font-size:60px;"">+</div>","null","html-keyboard-response","318","270967","0.0-6.0-0.156","MAGA","3","f","rechts","24","","fixation","","","",""
"1291","img/120_180.png","70","image-keyboard-response","319","272259","0.0-6.0-1.156","MAGA","3","f","rechts","24","","","object","f","120","true"
"null","<div style=""font-size:60px;"">+</div>","null","html-keyboard-response","320","272661","0.0-6.0-0.157","MAGA","3","f","rechts","24","","fixation","","","",""
"983","img/30_270.png","70","image-keyboard-response","321","273646","0.0-6.0-1.157","MAGA","3","f","rechts","24","","","object","f","30","true"
"null","<div style=""font-size:60px;"">+</div>","null","html-keyboard-response","322","274047","0.0-6.0-0.158","MAGA","3","f","rechts","24","","fixation","","","",""
"831","img/150_270.png","74","image-keyboard-response","323","274879","0.0-6.0-1.158","MAGA","3","f","rechts","24","","","object","j","150","true"
"null","<div style=""font-size:60px;"">+</div>","null","html-keyboard-response","324","275381","0.0-6.0-0.159","MAGA","3","f","rechts","24","","fixation","","","",""
"853","img/L60_180.png","74","image-keyboard-response","325","276235","0.0-6.0-1.159","MAGA","3","f","rechts","24","","","object","j","60","true"
"null","<div style=""font-size:60px;"">+</div>","null","html-keyboard-response","326","276587","0.0-6.0-0.160","MAGA","3","f","rechts","24","","fixation","","","",""
"842","img/90_30.png","74","image-keyboard-response","327","277429","0.0-6.0-1.160","MAGA","3","f","rechts","24","","","object","f","90","false"
"null","<div style=""font-size:60px;"">+</div>","null","html-keyboard-response","328","277881","0.0-6.0-0.161","MAGA","3","f","rechts","24","","fixation","","","",""
"694","img/L30_180.png","74","image-keyboard-response","329","278576","0.0-6.0-1.161","MAGA","3","f","rechts","24","","","object","j","30","true"
"null","<div style=""font-size:60px;"">+</div>","null","html-keyboard-response","330","278878","0.0-6.0-0.162","MAGA","3","f","rechts","24","","fixation","","","",""
"620","img/60_150.png","74","image-keyboard-response","331","279498","0.0-6.0-1.162","MAGA","3","f","rechts","24","","","object","j","60","true"
"null","<div style=""font-size:60px;"">+</div>","null","html-keyboard-response","332","279999","0.0-6.0-0.163","MAGA","3","f","rechts","24","","fixation","","","",""
"821","img/120_330.png","74","image-keyboard-response","333","280821","0.0-6.0-1.163","MAGA","3","f","rechts","24","","","object","j","120","true"
"null","<div style=""font-size:60px;"">+</div>","null","html-keyboard-response","334","281173","0.0-6.0-0.164","MAGA","3","f","rechts","24","","fixation","","","",""
"1641","img/150_240.png","74","image-keyboard-response","335","282815","0.0-6.0-1.164","MAGA","3","f","rechts","24","","","object","j","150","true"
"null","<div style=""font-size:60px;"">+</div>","null","html-keyboard-response","336","283267","0.0-6.0-0.165","MAGA","3","f","rechts","24","","fixation","","","",""
"722","img/0_120.png","74","image-keyboard-response","337","283989","0.0-6.0-1.165","MAGA","3","f","rechts","24","","","object","j","0","true"
"null","<div style=""font-size:60px;"">+</div>","null","html-keyboard-response","338","284441","0.0-6.0-0.166","MAGA","3","f","rechts","24","","fixation","","","",""
"1185","img/120_30.png","70","image-keyboard-response","339","285627","0.0-6.0-1.166","MAGA","3","f","rechts","24","","","object","f","120","true"
"null","<div style=""font-size:60px;"">+</div>","null","html-keyboard-response","340","285929","0.0-6.0-0.167","MAGA","3","f","rechts","24","","fixation","","","",""
"1657","img/90_210.png","70","image-keyboard-response","341","287586","0.0-6.0-1.167","MAGA","3","f","rechts","24","","","object","f","90","true"
"null","<div style=""font-size:60px;"">+</div>","null","html-keyboard-response","342","288038","0.0-6.0-0.168","MAGA","3","f","rechts","24","","fixation","","","",""
"1681","img/150_90.png","70","image-keyboard-response","343","289719","0.0-6.0-1.168","MAGA","3","f","rechts","24","","","object","f","150","true"
"null","<div style=""font-size:60px;"">+</div>","null","html-keyboard-response","344","290121","0.0-6.0-0.169","MAGA","3","f","rechts","24","","fixation","","","",""
"1278","img/120_90.png","70","image-keyboard-response","345","291399","0.0-6.0-1.169","MAGA","3","f","rechts","24","","","object","f","120","true"
"null","<div style=""font-size:60px;"">+</div>","null","html-keyboard-response","346","291801","0.0-6.0-0.170","MAGA","3","f","rechts","24","","fixation","","","",""
"851","img/0_90.png","74","image-keyboard-response","347","292652","0.0-6.0-1.170","MAGA","3","f","rechts","24","","","object","j","0","true"
"null","<div style=""font-size:60px;"">+</div>","null","html-keyboard-response","348","293004","0.0-6.0-0.171","MAGA","3","f","rechts","24","","fixation","","","",""
"841","img/120_270.png","74","image-keyboard-response","349","293845","0.0-6.0-1.171","MAGA","3","f","rechts","24","","","object","j","120","true"
"null","<div style=""font-size:60px;"">+</div>","null","html-keyboard-response","350","294246","0.0-6.0-0.172","MAGA","3","f","rechts","24","","fixation","","","",""
"695","img/60_30.png","70","image-keyboard-response","351","294942","0.0-6.0-1.172","MAGA","3","f","rechts","24","","","object","f","60","true"
"null","<div style=""font-size:60px;"">+</div>","null","html-keyboard-response","352","295244","0.0-6.0-0.173","MAGA","3","f","rechts","24","","fixation","","","",""
"614","img/0_300.png","70","image-keyboard-response","353","295858","0.0-6.0-1.173","MAGA","3","f","rechts","24","","","object","f","0","true"
"null","<div style=""font-size:60px;"">+</div>","null","html-keyboard-response","354","296210","0.0-6.0-0.174","MAGA","3","f","rechts","24","","fixation","","","",""
"728","img/30_60.png","74","image-keyboard-response","355","296939","0.0-6.0-1.174","MAGA","3","f","rechts","24","","","object","j","30","true"
"null","<div style=""font-size:60px;"">+</div>","null","html-keyboard-response","356","297440","0.0-6.0-0.175","MAGA","3","f","rechts","24","","fixation","","","",""
"744","img/150_60.png","70","image-keyboard-response","357","298184","0.0-6.0-1.175","MAGA","3","f","rechts","24","","","object","f","150","true"
"null","<div style=""font-size:60px;"">+</div>","null","html-keyboard-response","358","298486","0.0-6.0-0.176","MAGA","3","f","rechts","24","","fixation","","","",""
"1560","img/90_180.png","70","image-keyboard-response","359","300046","0.0-6.0-1.176","MAGA","3","f","rechts","24","","","object","f","90","true"
"null","<div style=""font-size:60px;"">+</div>","null","html-keyboard-response","360","300448","0.0-6.0-0.177","MAGA","3","f","rechts","24","","fixation","","","",""
"1314","img/30_90.png","74","image-keyboard-response","361","301763","0.0-6.0-1.177","MAGA","3","f","rechts","24","","","object","j","30","true"
"null","<div style=""font-size:60px;"">+</div>","null","html-keyboard-response","362","302115","0.0-6.0-0.178","MAGA","3","f","rechts","24","","fixation","","","",""
"1602","img/120_210.png","70","image-keyboard-response","363","303717","0.0-6.0-1.178","MAGA","3","f","rechts","24","","","object","f","120","true"
"null","<div style=""font-size:60px;"">+</div>","null","html-keyboard-response","364","304069","0.0-6.0-0.179","MAGA","3","f","rechts","24","","fixation","","","",""
"1899","img/150_180.png","74","image-keyboard-response","365","305968","0.0-6.0-1.179","MAGA","3","f","rechts","24","","","object","f","150","false"
"null","<div style=""font-size:60px;"">+</div>","null","html-keyboard-response","366","306420","0.0-6.0-0.180","MAGA","3","f","rechts","24","","fixation","","","",""
"2126","img/L120_180.png","74","image-keyboard-response","367","308546","0.0-6.0-1.180","MAGA","3","f","rechts","24","","","object","j","120","true"
"null","<div style=""font-size:60px;"">+</div>","null","html-keyboard-response","368","309047","0.0-6.0-0.181","MAGA","3","f","rechts","24","","fixation","","","",""
"684","img/0_270.png","70","image-keyboard-response","369","309732","0.0-6.0-1.181","MAGA","3","f","rechts","24","","","object","f","0","true"
"null","<div style=""font-size:60px;"">+</div>","null","html-keyboard-response","370","310033","0.0-6.0-0.182","MAGA","3","f","rechts","24","","fixation","","","",""
"689","img/30_240.png","70","image-keyboard-response","371","310723","0.0-6.0-1.182","MAGA","3","f","rechts","24","","","object","f","30","true"
"null","<div style=""font-size:60px;"">+</div>","null","html-keyboard-response","372","311225","0.0-6.0-0.183","MAGA","3","f","rechts","24","","fixation","","","",""
"550","img/0_60.png","74","image-keyboard-response","373","311776","0.0-6.0-1.183","MAGA","3","f","rechts","24","","","object","j","0","true"
"null","<div style=""font-size:60px;"">+</div>","null","html-keyboard-response","374","312227","0.0-6.0-0.184","MAGA","3","f","rechts","24","","fixation","","","",""
"687","img/30_120.png","74","image-keyboard-response","375","312916","0.0-6.0-1.184","MAGA","3","f","rechts","24","","","object","j","30","true"
"null","<div style=""font-size:60px;"">+</div>","null","html-keyboard-response","376","313367","0.0-6.0-0.185","MAGA","3","f","rechts","24","","fixation","","","",""
"729","img/60_180.png","70","image-keyboard-response","377","314097","0.0-6.0-1.185","MAGA","3","f","rechts","24","","","object","f","60","true"
"null","<div style=""font-size:60px;"">+</div>","null","html-keyboard-response","378","314549","0.0-6.0-0.186","MAGA","3","f","rechts","24","","fixation","","","",""
"880","img/90_60.png","70","image-keyboard-response","379","315430","0.0-6.0-1.186","MAGA","3","f","rechts","24","","","object","f","90","true"
"null","<div style=""font-size:60px;"">+</div>","null","html-keyboard-response","380","315831","0.0-6.0-0.187","MAGA","3","f","rechts","24","","fixation","","","",""
"840","img/90_300.png","74","image-keyboard-response","381","316672","0.0-6.0-1.187","MAGA","3","f","rechts","24","","","object","j","90","true"
"null","<div style=""font-size:60px;"">+</div>","null","html-keyboard-response","382","317074","0.0-6.0-0.188","MAGA","3","f","rechts","24","","fixation","","","",""
"560","img/0_330.png","70","image-keyboard-response","383","317635","0.0-6.0-1.188","MAGA","3","f","rechts","24","","","object","f","0","true"
"null","<div style=""font-size:60px;"">+</div>","null","html-keyboard-response","384","317986","0.0-6.0-0.189","MAGA","3","f","rechts","24","","fixation","","","",""
"595","img/0_240.png","70","image-keyboard-response","385","318582","0.0-6.0-1.189","MAGA","3","f","rechts","24","","","object","f","0","true"
"null","<div style=""font-size:60px;"">+</div>","null","html-keyboard-response","386","319084","0.0-6.0-0.190","MAGA","3","f","rechts","24","","fixation","","","",""
"1288","img/30_180.png","70","image-keyboard-response","387","320373","0.0-6.0-1.190","MAGA","3","f","rechts","24","","","object","f","30","true"
"null","<div style=""font-size:60px;"">+</div>","null","html-keyboard-response","388","320775","0.0-6.0-0.191","MAGA","3","f","rechts","24","","fixation","","","",""
"816","img/60_90.png","74","image-keyboard-response","389","321592","0.0-6.0-1.191","MAGA","3","f","rechts","24","","","object","j","60","true"
"null","<div style=""font-size:60px;"">+</div>","null","html-keyboard-response","390","322044","0.0-6.0-0.192","MAGA","3","f","rechts","24","","fixation","","","",""
"1226","img/150_300.png","74","image-keyboard-response","391","323271","0.0-6.0-1.192","MAGA","3","f","rechts","24","","","object","j","150","true"
"null","<div style=""font-size:60px;"">+</div>","null","html-keyboard-response","392","323673","0.0-6.0-0.193","MAGA","3","f","rechts","24","","fixation","","","",""
"1179","img/90_150.png","74","image-keyboard-response","393","324853","0.0-6.0-1.193","MAGA","3","f","rechts","24","","","object","j","90","true"
"null","<div style=""font-size:60px;"">+</div>","null","html-keyboard-response","394","325305","0.0-6.0-0.194","MAGA","3","f","rechts","24","","fixation","","","",""
"1302","img/90_240.png","70","image-keyboard-response","395","326608","0.0-6.0-1.194","MAGA","3","f","rechts","24","","","object","f","90","true"
"null","<div style=""font-size:60px;"">+</div>","null","html-keyboard-response","396","327060","0.0-6.0-0.195","MAGA","3","f","rechts","24","","fixation","","","",""
"788","img/L90_180.png","74","image-keyboard-response","397","327849","0.0-6.0-1.195","MAGA","3","f","rechts","24","","","object","j","90","true"
"null","<div style=""font-size:60px;"">+</div>","null","html-keyboard-response","398","328251","0.0-6.0-0.196","MAGA","3","f","rechts","24","","fixation","","","",""
"656","img/0_150.png","74","image-keyboard-response","399","328907","0.0-6.0-1.196","MAGA","3","f","rechts","24","","","object","j","0","true"
"null","<div style=""font-size:60px;"">+</div>","null","html-keyboard-response","400","329359","0.0-6.0-0.197","MAGA","3","f","rechts","24","","fixation","","","",""
"991","img/120_150.png","74","image-keyboard-response","401","330350","0.0-6.0-1.197","MAGA","3","f","rechts","24","","","object","j","120","true"
"null","<div style=""font-size:60px;"">+</div>","null","html-keyboard-response","402","330852","0.0-6.0-0.198","MAGA","3","f","rechts","24","","fixation","","","",""
"526","img/0_30.png","74","image-keyboard-response","403","331379","0.0-6.0-1.198","MAGA","3","f","rechts","24","","","object","j","0","true"
"null","<div style=""font-size:60px;"">+</div>","null","html-keyboard-response","404","331881","0.0-6.0-0.199","MAGA","3","f","rechts","24","","fixation","","","",""
"836","img/90_330.png","74","image-keyboard-response","405","332718","0.0-6.0-1.199","MAGA","3","f","rechts","24","","","object","j","90","true"
"null","<div style=""font-size:60px;"">+</div>","null","html-keyboard-response","406","333020","0.0-6.0-0.200","MAGA","3","f","rechts","24","","fixation","","","",""
"755","img/60_330.png","74","image-keyboard-response","407","333775","0.0-6.0-1.200","MAGA","3","f","rechts","24","","","object","j","60","true"
"null","<div style=""font-size:60px;"">+</div>","null","html-keyboard-response","408","334177","0.0-6.0-0.201","MAGA","3","f","rechts","24","","fixation","","","",""
"1582","img/90_120.png","74","image-keyboard-response","409","335760","0.0-6.0-1.201","MAGA","3","f","rechts","24","","","object","j","90","true"
"null","<div style=""font-size:60px;"">+</div>","null","html-keyboard-response","410","336162","0.0-6.0-0.202","MAGA","3","f","rechts","24","","fixation","","","",""
"1589","img/L150_180.png","74","image-keyboard-response","411","337752","0.0-6.0-1.202","MAGA","3","f","rechts","24","","","object","j","150","true"
"null","<div style=""font-size:60px;"">+</div>","null","html-keyboard-response","412","338104","0.0-6.0-0.203","MAGA","3","f","rechts","24","","fixation","","","",""
"1893","img/60_270.png","70","image-keyboard-response","413","339997","0.0-6.0-1.203","MAGA","3","f","rechts","24","","","object","f","60","true"
"null","<div style=""font-size:60px;"">+</div>","null","html-keyboard-response","414","340449","0.0-6.0-0.204","MAGA","3","f","rechts","24","","fixation","","","",""
"769","img/60_210.png","70","image-keyboard-response","415","341219","0.0-6.0-1.204","MAGA","3","f","rechts","24","","","object","f","60","true"
"null","<div style=""font-size:60px;"">+</div>","null","html-keyboard-response","416","341520","0.0-6.0-0.205","MAGA","3","f","rechts","24","","fixation","","","",""
"1786","img/150_120.png","74","image-keyboard-response","417","343307","0.0-6.0-1.205","MAGA","3","f","rechts","24","","","object","f","150","false"
"null","<div style=""font-size:60px;"">+</div>","null","html-keyboard-response","418","343659","0.0-6.0-0.206","MAGA","3","f","rechts","24","","fixation","","","",""
"848","img/0_210.png","70","image-keyboard-response","419","344507","0.0-6.0-1.206","MAGA","3","f","rechts","24","","","object","f","0","true"
"null","<div style=""font-size:60px;"">+</div>","null","html-keyboard-response","420","344908","0.0-6.0-0.207","MAGA","3","f","rechts","24","","fixation","","","",""
"1322","img/30_300.png","70","image-keyboard-response","421","346231","0.0-6.0-1.207","MAGA","3","f","rechts","24","","","object","f","30","true"
"6163","<p>Du hast in 93% der Versuche korrekt entschieden.</p><p>Deine durchschnittliche Reaktionszeit war  1048ms.</p><p>Dr&uuml;cke eine beliebige Taste, um die Session zu beenden. Vielen Dank!</p>","71","html-keyboard-response","422","352395","0.0-7.0","MAGA","3","f","rechts","24","","","","","",""
