"rt","stimulus","key_press","trial_type","trial_index","time_elapsed","internal_node_id","subject","session","sex","handedness","age","responses","test_part","condition","correct_response","angle","correct"
"960","<p>Mental Rotation Experiment.</p> <p>Dr&uuml;cke eine beliebige Taste, um anzufangen.</p>","72","html-keyboard-response","0","962","0.0-0.0","MAGA","4","f","rechts","24","","","","","",""
"2518","","","survey-text","1","3483","0.0-1.0","MAGA","4","f","rechts","24","{""Q0"":""MAGA""}","","","","",""
"1988","","","survey-text","2","5471","0.0-2.0","MAGA","4","f","rechts","24","{""Q0"":""4""}","","","","",""
"5140","","","survey-multi-choice","3","10614","0.0-3.0","MAGA","4","f","rechts","24","{""Q0"":""f"",""Q1"":""rechts""}","","","","",""
"2669","","","survey-text","4","13284","0.0-4.0","MAGA","4","f","rechts","24","{""Q0"":""24""}","","","","",""
"73576","<p>Stell dir vor, dass du vor einem runden Tisch stehst, auf dem sich ein blauer Ball am Tischrand befindet. Entlang des Tischrands ist jeweils ein verschieden langer Pfeil. Nun bleibst du an deinem Platz vor dem Tisch und rotierst den Tisch entlang des Pfeils (gleiche Richtung und Länge). </p> <img src='img/30_180.png'></img> <br><p> Nachdem du diese (vorgestellte) Rotation durchgef&uuml;hrt hast, schau in Richtung der Tischmitte, und entscheide dann, ob der Ball links oder rechts von dir liegt.</p> <p>Dr&uuml;cke die <strong>'f'</strong>-Taste f&uuml;r links, die <strong>'j'</strong>-Taste f&uuml;r rechts.</p><br><p> Das Bild wird jeweils 1 Sekunde lang pr&auml;sentiert. Du hast 3 Sekunden Zeit eine Entscheidung zu treffen.</p>","74","html-keyboard-response","5","86861","0.0-5.0","MAGA","4","f","rechts","24","","","","","",""
"null","<div style=""font-size:60px;"">+</div>","null","html-keyboard-response","6","88314","0.0-6.0-0.0","MAGA","4","f","rechts","24","","fixation","","","",""
"914","img/120_270.png","74","image-keyboard-response","7","89229","0.0-6.0-1.0","MAGA","4","f","rechts","24","","","object","j","120","true"
"null","<div style=""font-size:60px;"">+</div>","null","html-keyboard-response","8","89581","0.0-6.0-0.1","MAGA","4","f","rechts","24","","fixation","","","",""
"789","img/0_300.png","70","image-keyboard-response","9","90371","0.0-6.0-1.1","MAGA","4","f","rechts","24","","","object","f","0","true"
"null","<div style=""font-size:60px;"">+</div>","null","html-keyboard-response","10","90823","0.0-6.0-0.2","MAGA","4","f","rechts","24","","fixation","","","",""
"872","img/150_270.png","74","image-keyboard-response","11","91697","0.0-6.0-1.2","MAGA","4","f","rechts","24","","","object","j","150","true"
"null","<div style=""font-size:60px;"">+</div>","null","html-keyboard-response","12","91998","0.0-6.0-0.3","MAGA","4","f","rechts","24","","fixation","","","",""
"1078","img/150_240.png","74","image-keyboard-response","13","93079","0.0-6.0-1.3","MAGA","4","f","rechts","24","","","object","j","150","true"
"null","<div style=""font-size:60px;"">+</div>","null","html-keyboard-response","14","93580","0.0-6.0-0.4","MAGA","4","f","rechts","24","","fixation","","","",""
"1464","img/60_90.png","74","image-keyboard-response","15","95045","0.0-6.0-1.4","MAGA","4","f","rechts","24","","","object","j","60","true"
"null","<div style=""font-size:60px;"">+</div>","null","html-keyboard-response","16","95397","0.0-6.0-0.5","MAGA","4","f","rechts","24","","fixation","","","",""
"913","img/30_270.png","70","image-keyboard-response","17","96311","0.0-6.0-1.5","MAGA","4","f","rechts","24","","","object","f","30","true"
"null","<div style=""font-size:60px;"">+</div>","null","html-keyboard-response","18","96662","0.0-6.0-0.6","MAGA","4","f","rechts","24","","fixation","","","",""
"574","img/0_270.png","70","image-keyboard-response","19","97238","0.0-6.0-1.6","MAGA","4","f","rechts","24","","","object","f","0","true"
"null","<div style=""font-size:60px;"">+</div>","null","html-keyboard-response","20","97690","0.0-6.0-0.7","MAGA","4","f","rechts","24","","fixation","","","",""
"604","img/0_30.png","74","image-keyboard-response","21","98296","0.0-6.0-1.7","MAGA","4","f","rechts","24","","","object","j","0","true"
"null","<div style=""font-size:60px;"">+</div>","null","html-keyboard-response","22","98698","0.0-6.0-0.8","MAGA","4","f","rechts","24","","fixation","","","",""
"902","img/150_120.png","70","image-keyboard-response","23","99602","0.0-6.0-1.8","MAGA","4","f","rechts","24","","","object","f","150","true"
"null","<div style=""font-size:60px;"">+</div>","null","html-keyboard-response","24","100053","0.0-6.0-0.9","MAGA","4","f","rechts","24","","fixation","","","",""
"1214","img/90_120.png","74","image-keyboard-response","25","101269","0.0-6.0-1.9","MAGA","4","f","rechts","24","","","object","j","90","true"
"null","<div style=""font-size:60px;"">+</div>","null","html-keyboard-response","26","101620","0.0-6.0-0.10","MAGA","4","f","rechts","24","","fixation","","","",""
"928","img/90_60.png","70","image-keyboard-response","27","102549","0.0-6.0-1.10","MAGA","4","f","rechts","24","","","object","f","90","true"
"null","<div style=""font-size:60px;"">+</div>","null","html-keyboard-response","28","103001","0.0-6.0-0.11","MAGA","4","f","rechts","24","","fixation","","","",""
"1313","img/90_210.png","70","image-keyboard-response","29","104315","0.0-6.0-1.11","MAGA","4","f","rechts","24","","","object","f","90","true"
"null","<div style=""font-size:60px;"">+</div>","null","html-keyboard-response","30","104817","0.0-6.0-0.12","MAGA","4","f","rechts","24","","fixation","","","",""
"778","img/0_330.png","70","image-keyboard-response","31","105597","0.0-6.0-1.12","MAGA","4","f","rechts","24","","","object","f","0","true"
"null","<div style=""font-size:60px;"">+</div>","null","html-keyboard-response","32","105998","0.0-6.0-0.13","MAGA","4","f","rechts","24","","fixation","","","",""
"2130","img/120_210.png","74","image-keyboard-response","33","108129","0.0-6.0-1.13","MAGA","4","f","rechts","24","","","object","f","120","false"
"null","<div style=""font-size:60px;"">+</div>","null","html-keyboard-response","34","108631","0.0-6.0-0.14","MAGA","4","f","rechts","24","","fixation","","","",""
"1730","img/120_150.png","74","image-keyboard-response","35","110363","0.0-6.0-1.14","MAGA","4","f","rechts","24","","","object","j","120","true"
"null","<div style=""font-size:60px;"">+</div>","null","html-keyboard-response","36","110715","0.0-6.0-0.15","MAGA","4","f","rechts","24","","fixation","","","",""
"1134","img/60_330.png","74","image-keyboard-response","37","111850","0.0-6.0-1.15","MAGA","4","f","rechts","24","","","object","j","60","true"
"null","<div style=""font-size:60px;"">+</div>","null","html-keyboard-response","38","112302","0.0-6.0-0.16","MAGA","4","f","rechts","24","","fixation","","","",""
"727","img/120_30.png","70","image-keyboard-response","39","113030","0.0-6.0-1.16","MAGA","4","f","rechts","24","","","object","f","120","true"
"null","<div style=""font-size:60px;"">+</div>","null","html-keyboard-response","40","113432","0.0-6.0-0.17","MAGA","4","f","rechts","24","","fixation","","","",""
"1618","img/60_150.png","74","image-keyboard-response","41","115051","0.0-6.0-1.17","MAGA","4","f","rechts","24","","","object","j","60","true"
"null","<div style=""font-size:60px;"">+</div>","null","html-keyboard-response","42","115503","0.0-6.0-0.18","MAGA","4","f","rechts","24","","fixation","","","",""
"1249","img/150_60.png","70","image-keyboard-response","43","116753","0.0-6.0-1.18","MAGA","4","f","rechts","24","","","object","f","150","true"
"null","<div style=""font-size:60px;"">+</div>","null","html-keyboard-response","44","117155","0.0-6.0-0.19","MAGA","4","f","rechts","24","","fixation","","","",""
"1694","img/150_180.png","70","image-keyboard-response","45","118850","0.0-6.0-1.19","MAGA","4","f","rechts","24","","","object","f","150","true"
"null","<div style=""font-size:60px;"">+</div>","null","html-keyboard-response","46","119152","0.0-6.0-0.20","MAGA","4","f","rechts","24","","fixation","","","",""
"1833","img/30_240.png","70","image-keyboard-response","47","120986","0.0-6.0-1.20","MAGA","4","f","rechts","24","","","object","f","30","true"
"null","<div style=""font-size:60px;"">+</div>","null","html-keyboard-response","48","121288","0.0-6.0-0.21","MAGA","4","f","rechts","24","","fixation","","","",""
"1542","img/120_180.png","70","image-keyboard-response","49","122831","0.0-6.0-1.21","MAGA","4","f","rechts","24","","","object","f","120","true"
"null","<div style=""font-size:60px;"">+</div>","null","html-keyboard-response","50","123233","0.0-6.0-0.22","MAGA","4","f","rechts","24","","fixation","","","",""
"1883","img/120_90.png","70","image-keyboard-response","51","125117","0.0-6.0-1.22","MAGA","4","f","rechts","24","","","object","f","120","true"
"null","<div style=""font-size:60px;"">+</div>","null","html-keyboard-response","52","125419","0.0-6.0-0.23","MAGA","4","f","rechts","24","","fixation","","","",""
"772","img/150_300.png","74","image-keyboard-response","53","126192","0.0-6.0-1.23","MAGA","4","f","rechts","24","","","object","j","150","true"
"null","<div style=""font-size:60px;"">+</div>","null","html-keyboard-response","54","126594","0.0-6.0-0.24","MAGA","4","f","rechts","24","","fixation","","","",""
"717","img/90_30.png","70","image-keyboard-response","55","127312","0.0-6.0-1.24","MAGA","4","f","rechts","24","","","object","f","90","true"
"null","<div style=""font-size:60px;"">+</div>","null","html-keyboard-response","56","127714","0.0-6.0-0.25","MAGA","4","f","rechts","24","","fixation","","","",""
"876","img/L120_180.png","74","image-keyboard-response","57","128590","0.0-6.0-1.25","MAGA","4","f","rechts","24","","","object","j","120","true"
"null","<div style=""font-size:60px;"">+</div>","null","html-keyboard-response","58","128990","0.0-6.0-0.26","MAGA","4","f","rechts","24","","fixation","","","",""
"651","img/0_60.png","74","image-keyboard-response","59","129642","0.0-6.0-1.26","MAGA","4","f","rechts","24","","","object","j","0","true"
"null","<div style=""font-size:60px;"">+</div>","null","html-keyboard-response","60","129944","0.0-6.0-0.27","MAGA","4","f","rechts","24","","fixation","","","",""
"853","img/L90_180.png","74","image-keyboard-response","61","130797","0.0-6.0-1.27","MAGA","4","f","rechts","24","","","object","j","90","true"
"null","<div style=""font-size:60px;"">+</div>","null","html-keyboard-response","62","131249","0.0-6.0-0.28","MAGA","4","f","rechts","24","","fixation","","","",""
"722","img/60_30.png","70","image-keyboard-response","63","131971","0.0-6.0-1.28","MAGA","4","f","rechts","24","","","object","f","60","true"
"null","<div style=""font-size:60px;"">+</div>","null","html-keyboard-response","64","132422","0.0-6.0-0.29","MAGA","4","f","rechts","24","","fixation","","","",""
"667","img/120_330.png","74","image-keyboard-response","65","133090","0.0-6.0-1.29","MAGA","4","f","rechts","24","","","object","j","120","true"
"null","<div style=""font-size:60px;"">+</div>","null","html-keyboard-response","66","133491","0.0-6.0-0.30","MAGA","4","f","rechts","24","","fixation","","","",""
"678","img/0_120.png","74","image-keyboard-response","67","134170","0.0-6.0-1.30","MAGA","4","f","rechts","24","","","object","j","0","true"
"null","<div style=""font-size:60px;"">+</div>","null","html-keyboard-response","68","134471","0.0-6.0-0.31","MAGA","4","f","rechts","24","","fixation","","","",""
"1068","img/90_180.png","70","image-keyboard-response","69","135539","0.0-6.0-1.31","MAGA","4","f","rechts","24","","","object","f","90","true"
"null","<div style=""font-size:60px;"">+</div>","null","html-keyboard-response","70","135891","0.0-6.0-0.32","MAGA","4","f","rechts","24","","fixation","","","",""
"1108","img/150_90.png","70","image-keyboard-response","71","137001","0.0-6.0-1.32","MAGA","4","f","rechts","24","","","object","f","150","true"
"null","<div style=""font-size:60px;"">+</div>","null","html-keyboard-response","72","137402","0.0-6.0-0.33","MAGA","4","f","rechts","24","","fixation","","","",""
"1075","img/L150_180.png","74","image-keyboard-response","73","138478","0.0-6.0-1.33","MAGA","4","f","rechts","24","","","object","j","150","true"
"null","<div style=""font-size:60px;"">+</div>","null","html-keyboard-response","74","138979","0.0-6.0-0.34","MAGA","4","f","rechts","24","","fixation","","","",""
"1572","img/60_270.png","74","image-keyboard-response","75","140552","0.0-6.0-1.34","MAGA","4","f","rechts","24","","","object","f","60","false"
"null","<div style=""font-size:60px;"">+</div>","null","html-keyboard-response","76","141053","0.0-6.0-0.35","MAGA","4","f","rechts","24","","fixation","","","",""
"910","img/60_180.png","70","image-keyboard-response","77","141964","0.0-6.0-1.35","MAGA","4","f","rechts","24","","","object","f","60","true"
"null","<div style=""font-size:60px;"">+</div>","null","html-keyboard-response","78","142316","0.0-6.0-0.36","MAGA","4","f","rechts","24","","fixation","","","",""
"805","img/30_90.png","74","image-keyboard-response","79","143122","0.0-6.0-1.36","MAGA","4","f","rechts","24","","","object","j","30","true"
"null","<div style=""font-size:60px;"">+</div>","null","html-keyboard-response","80","143573","0.0-6.0-0.37","MAGA","4","f","rechts","24","","fixation","","","",""
"662","img/L30_180.png","74","image-keyboard-response","81","144236","0.0-6.0-1.37","MAGA","4","f","rechts","24","","","object","j","30","true"
"null","<div style=""font-size:60px;"">+</div>","null","html-keyboard-response","82","144588","0.0-6.0-0.38","MAGA","4","f","rechts","24","","fixation","","","",""
"828","img/90_300.png","74","image-keyboard-response","83","145418","0.0-6.0-1.38","MAGA","4","f","rechts","24","","","object","j","90","true"
"null","<div style=""font-size:60px;"">+</div>","null","html-keyboard-response","84","145769","0.0-6.0-0.39","MAGA","4","f","rechts","24","","fixation","","","",""
"595","img/90_330.png","74","image-keyboard-response","85","146366","0.0-6.0-1.39","MAGA","4","f","rechts","24","","","object","j","90","true"
"null","<div style=""font-size:60px;"">+</div>","null","html-keyboard-response","86","146817","0.0-6.0-0.40","MAGA","4","f","rechts","24","","fixation","","","",""
"683","img/0_240.png","70","image-keyboard-response","87","147501","0.0-6.0-1.40","MAGA","4","f","rechts","24","","","object","f","0","true"
"null","<div style=""font-size:60px;"">+</div>","null","html-keyboard-response","88","147803","0.0-6.0-0.41","MAGA","4","f","rechts","24","","fixation","","","",""
"741","img/30_120.png","74","image-keyboard-response","89","148546","0.0-6.0-1.41","MAGA","4","f","rechts","24","","","object","j","30","true"
"null","<div style=""font-size:60px;"">+</div>","null","html-keyboard-response","90","148897","0.0-6.0-0.42","MAGA","4","f","rechts","24","","fixation","","","",""
"576","img/0_90.png","74","image-keyboard-response","91","149475","0.0-6.0-1.42","MAGA","4","f","rechts","24","","","object","j","0","true"
"null","<div style=""font-size:60px;"">+</div>","null","html-keyboard-response","92","149876","0.0-6.0-0.43","MAGA","4","f","rechts","24","","fixation","","","",""
"768","img/L60_180.png","74","image-keyboard-response","93","150645","0.0-6.0-1.43","MAGA","4","f","rechts","24","","","object","j","60","true"
"null","<div style=""font-size:60px;"">+</div>","null","html-keyboard-response","94","150996","0.0-6.0-0.44","MAGA","4","f","rechts","24","","fixation","","","",""
"633","img/60_210.png","70","image-keyboard-response","95","151631","0.0-6.0-1.44","MAGA","4","f","rechts","24","","","object","f","60","true"
"null","<div style=""font-size:60px;"">+</div>","null","html-keyboard-response","96","151982","0.0-6.0-0.45","MAGA","4","f","rechts","24","","fixation","","","",""
"589","img/30_300.png","70","image-keyboard-response","97","152572","0.0-6.0-1.45","MAGA","4","f","rechts","24","","","object","f","30","true"
"null","<div style=""font-size:60px;"">+</div>","null","html-keyboard-response","98","152974","0.0-6.0-0.46","MAGA","4","f","rechts","24","","fixation","","","",""
"573","img/0_150.png","74","image-keyboard-response","99","153549","0.0-6.0-1.46","MAGA","4","f","rechts","24","","","object","j","0","true"
"null","<div style=""font-size:60px;"">+</div>","null","html-keyboard-response","100","153950","0.0-6.0-0.47","MAGA","4","f","rechts","24","","fixation","","","",""
"802","img/90_240.png","74","image-keyboard-response","101","154753","0.0-6.0-1.47","MAGA","4","f","rechts","24","","","object","f","90","false"
"null","<div style=""font-size:60px;"">+</div>","null","html-keyboard-response","102","155105","0.0-6.0-0.48","MAGA","4","f","rechts","24","","fixation","","","",""
"1628","img/30_180.png","70","image-keyboard-response","103","156734","0.0-6.0-1.48","MAGA","4","f","rechts","24","","","object","f","30","true"
"null","<div style=""font-size:60px;"">+</div>","null","html-keyboard-response","104","157086","0.0-6.0-0.49","MAGA","4","f","rechts","24","","fixation","","","",""
"660","img/0_210.png","70","image-keyboard-response","105","157747","0.0-6.0-1.49","MAGA","4","f","rechts","24","","","object","f","0","true"
"null","<div style=""font-size:60px;"">+</div>","null","html-keyboard-response","106","158099","0.0-6.0-0.50","MAGA","4","f","rechts","24","","fixation","","","",""
"654","img/30_60.png","74","image-keyboard-response","107","158754","0.0-6.0-1.50","MAGA","4","f","rechts","24","","","object","j","30","true"
"null","<div style=""font-size:60px;"">+</div>","null","html-keyboard-response","108","159056","0.0-6.0-0.51","MAGA","4","f","rechts","24","","fixation","","","",""
"1724","img/90_150.png","74","image-keyboard-response","109","160781","0.0-6.0-1.51","MAGA","4","f","rechts","24","","","object","j","90","true"
"null","<div style=""font-size:60px;"">+</div>","null","html-keyboard-response","110","161232","0.0-6.0-0.52","MAGA","4","f","rechts","24","","fixation","","","",""
"1490","img/90_240.png","70","image-keyboard-response","111","162722","0.0-6.0-1.52","MAGA","4","f","rechts","24","","","object","f","90","true"
"null","<div style=""font-size:60px;"">+</div>","null","html-keyboard-response","112","163174","0.0-6.0-0.53","MAGA","4","f","rechts","24","","fixation","","","",""
"729","img/L60_180.png","74","image-keyboard-response","113","163904","0.0-6.0-1.53","MAGA","4","f","rechts","24","","","object","j","60","true"
"null","<div style=""font-size:60px;"">+</div>","null","html-keyboard-response","114","164356","0.0-6.0-0.54","MAGA","4","f","rechts","24","","fixation","","","",""
"749","img/90_300.png","74","image-keyboard-response","115","165106","0.0-6.0-1.54","MAGA","4","f","rechts","24","","","object","j","90","true"
"null","<div style=""font-size:60px;"">+</div>","null","html-keyboard-response","116","165508","0.0-6.0-0.55","MAGA","4","f","rechts","24","","fixation","","","",""
"975","img/90_210.png","70","image-keyboard-response","117","166483","0.0-6.0-1.55","MAGA","4","f","rechts","24","","","object","f","90","true"
"null","<div style=""font-size:60px;"">+</div>","null","html-keyboard-response","118","166884","0.0-6.0-0.56","MAGA","4","f","rechts","24","","fixation","","","",""
"1968","img/60_270.png","70","image-keyboard-response","119","168852","0.0-6.0-1.56","MAGA","4","f","rechts","24","","","object","f","60","true"
"null","<div style=""font-size:60px;"">+</div>","null","html-keyboard-response","120","169254","0.0-6.0-0.57","MAGA","4","f","rechts","24","","fixation","","","",""
"731","img/L150_180.png","74","image-keyboard-response","121","169985","0.0-6.0-1.57","MAGA","4","f","rechts","24","","","object","j","150","true"
"null","<div style=""font-size:60px;"">+</div>","null","html-keyboard-response","122","170486","0.0-6.0-0.58","MAGA","4","f","rechts","24","","fixation","","","",""
"755","img/60_30.png","70","image-keyboard-response","123","171241","0.0-6.0-1.58","MAGA","4","f","rechts","24","","","object","f","60","true"
"null","<div style=""font-size:60px;"">+</div>","null","html-keyboard-response","124","171593","0.0-6.0-0.59","MAGA","4","f","rechts","24","","fixation","","","",""
"1261","img/150_90.png","70","image-keyboard-response","125","172854","0.0-6.0-1.59","MAGA","4","f","rechts","24","","","object","f","150","true"
"null","<div style=""font-size:60px;"">+</div>","null","html-keyboard-response","126","173206","0.0-6.0-0.60","MAGA","4","f","rechts","24","","fixation","","","",""
"926","img/90_150.png","74","image-keyboard-response","127","174132","0.0-6.0-1.60","MAGA","4","f","rechts","24","","","object","j","90","true"
"null","<div style=""font-size:60px;"">+</div>","null","html-keyboard-response","128","174484","0.0-6.0-0.61","MAGA","4","f","rechts","24","","fixation","","","",""
"831","img/150_270.png","74","image-keyboard-response","129","175315","0.0-6.0-1.61","MAGA","4","f","rechts","24","","","object","j","150","true"
"null","<div style=""font-size:60px;"">+</div>","null","html-keyboard-response","130","175717","0.0-6.0-0.62","MAGA","4","f","rechts","24","","fixation","","","",""
"725","img/90_60.png","70","image-keyboard-response","131","176442","0.0-6.0-1.62","MAGA","4","f","rechts","24","","","object","f","90","true"
"null","<div style=""font-size:60px;"">+</div>","null","html-keyboard-response","132","176744","0.0-6.0-0.63","MAGA","4","f","rechts","24","","fixation","","","",""
"790","img/0_330.png","70","image-keyboard-response","133","177534","0.0-6.0-1.63","MAGA","4","f","rechts","24","","","object","f","0","true"
"null","<div style=""font-size:60px;"">+</div>","null","html-keyboard-response","134","177886","0.0-6.0-0.64","MAGA","4","f","rechts","24","","fixation","","","",""
"699","img/0_210.png","70","image-keyboard-response","135","178585","0.0-6.0-1.64","MAGA","4","f","rechts","24","","","object","f","0","true"
"null","<div style=""font-size:60px;"">+</div>","null","html-keyboard-response","136","178886","0.0-6.0-0.65","MAGA","4","f","rechts","24","","fixation","","","",""
"1353","img/60_90.png","70","image-keyboard-response","137","180240","0.0-6.0-1.65","MAGA","4","f","rechts","24","","","object","j","60","false"
"null","<div style=""font-size:60px;"">+</div>","null","html-keyboard-response","138","180592","0.0-6.0-0.66","MAGA","4","f","rechts","24","","fixation","","","",""
"881","img/0_30.png","74","image-keyboard-response","139","181473","0.0-6.0-1.66","MAGA","4","f","rechts","24","","","object","j","0","true"
"null","<div style=""font-size:60px;"">+</div>","null","html-keyboard-response","140","181874","0.0-6.0-0.67","MAGA","4","f","rechts","24","","fixation","","","",""
"674","img/120_30.png","70","image-keyboard-response","141","182548","0.0-6.0-1.67","MAGA","4","f","rechts","24","","","object","f","120","true"
"null","<div style=""font-size:60px;"">+</div>","null","html-keyboard-response","142","183050","0.0-6.0-0.68","MAGA","4","f","rechts","24","","fixation","","","",""
"1201","img/150_60.png","70","image-keyboard-response","143","184251","0.0-6.0-1.68","MAGA","4","f","rechts","24","","","object","f","150","true"
"null","<div style=""font-size:60px;"">+</div>","null","html-keyboard-response","144","184652","0.0-6.0-0.69","MAGA","4","f","rechts","24","","fixation","","","",""
"705","img/30_90.png","74","image-keyboard-response","145","185358","0.0-6.0-1.69","MAGA","4","f","rechts","24","","","object","j","30","true"
"null","<div style=""font-size:60px;"">+</div>","null","html-keyboard-response","146","185859","0.0-6.0-0.70","MAGA","4","f","rechts","24","","fixation","","","",""
"1864","img/150_240.png","74","image-keyboard-response","147","187724","0.0-6.0-1.70","MAGA","4","f","rechts","24","","","object","j","150","true"
"null","<div style=""font-size:60px;"">+</div>","null","html-keyboard-response","148","188025","0.0-6.0-0.71","MAGA","4","f","rechts","24","","fixation","","","",""
"1952","img/120_150.png","70","image-keyboard-response","149","189978","0.0-6.0-1.71","MAGA","4","f","rechts","24","","","object","j","120","false"
"null","<div style=""font-size:60px;"">+</div>","null","html-keyboard-response","150","190429","0.0-6.0-0.72","MAGA","4","f","rechts","24","","fixation","","","",""
"1475","img/30_300.png","70","image-keyboard-response","151","191905","0.0-6.0-1.72","MAGA","4","f","rechts","24","","","object","f","30","true"
"null","<div style=""font-size:60px;"">+</div>","null","html-keyboard-response","152","192206","0.0-6.0-0.73","MAGA","4","f","rechts","24","","fixation","","","",""
"776","img/120_270.png","74","image-keyboard-response","153","192984","0.0-6.0-1.73","MAGA","4","f","rechts","24","","","object","j","120","true"
"null","<div style=""font-size:60px;"">+</div>","null","html-keyboard-response","154","193485","0.0-6.0-0.74","MAGA","4","f","rechts","24","","fixation","","","",""
"636","img/0_90.png","74","image-keyboard-response","155","194123","0.0-6.0-1.74","MAGA","4","f","rechts","24","","","object","j","0","true"
"null","<div style=""font-size:60px;"">+</div>","null","html-keyboard-response","156","194574","0.0-6.0-0.75","MAGA","4","f","rechts","24","","fixation","","","",""
"2222","img/120_180.png","74","image-keyboard-response","157","196798","0.0-6.0-1.75","MAGA","4","f","rechts","24","","","object","f","120","false"
"null","<div style=""font-size:60px;"">+</div>","null","html-keyboard-response","158","197249","0.0-6.0-0.76","MAGA","4","f","rechts","24","","fixation","","","",""
"2233","img/150_120.png","74","image-keyboard-response","159","199484","0.0-6.0-1.76","MAGA","4","f","rechts","24","","","object","f","150","false"
"null","<div style=""font-size:60px;"">+</div>","null","html-keyboard-response","160","199785","0.0-6.0-0.77","MAGA","4","f","rechts","24","","fixation","","","",""
"995","img/30_240.png","70","image-keyboard-response","161","200781","0.0-6.0-1.77","MAGA","4","f","rechts","24","","","object","f","30","true"
"null","<div style=""font-size:60px;"">+</div>","null","html-keyboard-response","162","201133","0.0-6.0-0.78","MAGA","4","f","rechts","24","","fixation","","","",""
"618","img/0_60.png","74","image-keyboard-response","163","201752","0.0-6.0-1.78","MAGA","4","f","rechts","24","","","object","j","0","true"
"null","<div style=""font-size:60px;"">+</div>","null","html-keyboard-response","164","202103","0.0-6.0-0.79","MAGA","4","f","rechts","24","","fixation","","","",""
"1334","img/L120_180.png","74","image-keyboard-response","165","203438","0.0-6.0-1.79","MAGA","4","f","rechts","24","","","object","j","120","true"
"null","<div style=""font-size:60px;"">+</div>","null","html-keyboard-response","166","203889","0.0-6.0-0.80","MAGA","4","f","rechts","24","","fixation","","","",""
"1670","img/90_120.png","74","image-keyboard-response","167","205560","0.0-6.0-1.80","MAGA","4","f","rechts","24","","","object","j","90","true"
"null","<div style=""font-size:60px;"">+</div>","null","html-keyboard-response","168","206062","0.0-6.0-0.81","MAGA","4","f","rechts","24","","fixation","","","",""
"746","img/0_240.png","70","image-keyboard-response","169","206809","0.0-6.0-1.81","MAGA","4","f","rechts","24","","","object","f","0","true"
"null","<div style=""font-size:60px;"">+</div>","null","html-keyboard-response","170","207261","0.0-6.0-0.82","MAGA","4","f","rechts","24","","fixation","","","",""
"1752","img/120_210.png","70","image-keyboard-response","171","209013","0.0-6.0-1.82","MAGA","4","f","rechts","24","","","object","f","120","true"
"null","<div style=""font-size:60px;"">+</div>","null","html-keyboard-response","172","209315","0.0-6.0-0.83","MAGA","4","f","rechts","24","","fixation","","","",""
"863","img/150_300.png","74","image-keyboard-response","173","210179","0.0-6.0-1.83","MAGA","4","f","rechts","24","","","object","j","150","true"
"null","<div style=""font-size:60px;"">+</div>","null","html-keyboard-response","174","210531","0.0-6.0-0.84","MAGA","4","f","rechts","24","","fixation","","","",""
"630","img/0_120.png","74","image-keyboard-response","175","211162","0.0-6.0-1.84","MAGA","4","f","rechts","24","","","object","j","0","true"
"null","<div style=""font-size:60px;"">+</div>","null","html-keyboard-response","176","211464","0.0-6.0-0.85","MAGA","4","f","rechts","24","","fixation","","","",""
"1071","img/150_180.png","70","image-keyboard-response","177","212536","0.0-6.0-1.85","MAGA","4","f","rechts","24","","","object","f","150","true"
"null","<div style=""font-size:60px;"">+</div>","null","html-keyboard-response","178","213038","0.0-6.0-0.86","MAGA","4","f","rechts","24","","fixation","","","",""
"1160","img/0_270.png","70","image-keyboard-response","179","214199","0.0-6.0-1.86","MAGA","4","f","rechts","24","","","object","f","0","true"
"null","<div style=""font-size:60px;"">+</div>","null","html-keyboard-response","180","214601","0.0-6.0-0.87","MAGA","4","f","rechts","24","","fixation","","","",""
"845","img/30_120.png","74","image-keyboard-response","181","215446","0.0-6.0-1.87","MAGA","4","f","rechts","24","","","object","j","30","true"
"null","<div style=""font-size:60px;"">+</div>","null","html-keyboard-response","182","215898","0.0-6.0-0.88","MAGA","4","f","rechts","24","","fixation","","","",""
"781","img/L30_180.png","74","image-keyboard-response","183","216679","0.0-6.0-1.88","MAGA","4","f","rechts","24","","","object","j","30","true"
"null","<div style=""font-size:60px;"">+</div>","null","html-keyboard-response","184","217130","0.0-6.0-0.89","MAGA","4","f","rechts","24","","fixation","","","",""
"841","img/120_330.png","74","image-keyboard-response","185","217972","0.0-6.0-1.89","MAGA","4","f","rechts","24","","","object","j","120","true"
"null","<div style=""font-size:60px;"">+</div>","null","html-keyboard-response","186","218374","0.0-6.0-0.90","MAGA","4","f","rechts","24","","fixation","","","",""
"1067","img/L90_180.png","74","image-keyboard-response","187","219442","0.0-6.0-1.90","MAGA","4","f","rechts","24","","","object","j","90","true"
"null","<div style=""font-size:60px;"">+</div>","null","html-keyboard-response","188","219744","0.0-6.0-0.91","MAGA","4","f","rechts","24","","fixation","","","",""
"826","img/90_180.png","70","image-keyboard-response","189","220570","0.0-6.0-1.91","MAGA","4","f","rechts","24","","","object","f","90","true"
"null","<div style=""font-size:60px;"">+</div>","null","html-keyboard-response","190","221022","0.0-6.0-0.92","MAGA","4","f","rechts","24","","fixation","","","",""
"1512","img/30_60.png","74","image-keyboard-response","191","222534","0.0-6.0-1.92","MAGA","4","f","rechts","24","","","object","j","30","true"
"null","<div style=""font-size:60px;"">+</div>","null","html-keyboard-response","192","222936","0.0-6.0-0.93","MAGA","4","f","rechts","24","","fixation","","","",""
"741","img/0_300.png","70","image-keyboard-response","193","223677","0.0-6.0-1.93","MAGA","4","f","rechts","24","","","object","f","0","true"
"null","<div style=""font-size:60px;"">+</div>","null","html-keyboard-response","194","224129","0.0-6.0-0.94","MAGA","4","f","rechts","24","","fixation","","","",""
"775","img/30_180.png","70","image-keyboard-response","195","224904","0.0-6.0-1.94","MAGA","4","f","rechts","24","","","object","f","30","true"
"null","<div style=""font-size:60px;"">+</div>","null","html-keyboard-response","196","225406","0.0-6.0-0.95","MAGA","4","f","rechts","24","","fixation","","","",""
"689","img/30_270.png","70","image-keyboard-response","197","226095","0.0-6.0-1.95","MAGA","4","f","rechts","24","","","object","f","30","true"
"null","<div style=""font-size:60px;"">+</div>","null","html-keyboard-response","198","226447","0.0-6.0-0.96","MAGA","4","f","rechts","24","","fixation","","","",""
"935","img/120_90.png","70","image-keyboard-response","199","227382","0.0-6.0-1.96","MAGA","4","f","rechts","24","","","object","f","120","true"
"null","<div style=""font-size:60px;"">+</div>","null","html-keyboard-response","200","227683","0.0-6.0-0.97","MAGA","4","f","rechts","24","","fixation","","","",""
"1111","img/60_180.png","70","image-keyboard-response","201","228795","0.0-6.0-1.97","MAGA","4","f","rechts","24","","","object","f","60","true"
"null","<div style=""font-size:60px;"">+</div>","null","html-keyboard-response","202","229146","0.0-6.0-0.98","MAGA","4","f","rechts","24","","fixation","","","",""
"747","img/0_150.png","74","image-keyboard-response","203","229894","0.0-6.0-1.98","MAGA","4","f","rechts","24","","","object","j","0","true"
"null","<div style=""font-size:60px;"">+</div>","null","html-keyboard-response","204","230296","0.0-6.0-0.99","MAGA","4","f","rechts","24","","fixation","","","",""
"806","img/60_210.png","70","image-keyboard-response","205","231102","0.0-6.0-1.99","MAGA","4","f","rechts","24","","","object","f","60","true"
"null","<div style=""font-size:60px;"">+</div>","null","html-keyboard-response","206","231453","0.0-6.0-0.100","MAGA","4","f","rechts","24","","fixation","","","",""
"846","img/60_330.png","74","image-keyboard-response","207","232300","0.0-6.0-1.100","MAGA","4","f","rechts","24","","","object","j","60","true"
"null","<div style=""font-size:60px;"">+</div>","null","html-keyboard-response","208","232752","0.0-6.0-0.101","MAGA","4","f","rechts","24","","fixation","","","",""
"759","img/90_30.png","70","image-keyboard-response","209","233511","0.0-6.0-1.101","MAGA","4","f","rechts","24","","","object","f","90","true"
"null","<div style=""font-size:60px;"">+</div>","null","html-keyboard-response","210","233962","0.0-6.0-0.102","MAGA","4","f","rechts","24","","fixation","","","",""
"652","img/90_330.png","74","image-keyboard-response","211","234615","0.0-6.0-1.102","MAGA","4","f","rechts","24","","","object","j","90","true"
"null","<div style=""font-size:60px;"">+</div>","null","html-keyboard-response","212","235116","0.0-6.0-0.103","MAGA","4","f","rechts","24","","fixation","","","",""
"1141","img/60_150.png","74","image-keyboard-response","213","236257","0.0-6.0-1.103","MAGA","4","f","rechts","24","","","object","j","60","true"
"null","<div style=""font-size:60px;"">+</div>","null","html-keyboard-response","214","236759","0.0-6.0-0.104","MAGA","4","f","rechts","24","","fixation","","","",""
"1624","img/90_240.png","70","image-keyboard-response","215","238384","0.0-6.0-1.104","MAGA","4","f","rechts","24","","","object","f","90","true"
"null","<div style=""font-size:60px;"">+</div>","null","html-keyboard-response","216","238835","0.0-6.0-0.105","MAGA","4","f","rechts","24","","fixation","","","",""
"788","img/90_330.png","74","image-keyboard-response","217","239624","0.0-6.0-1.105","MAGA","4","f","rechts","24","","","object","j","90","true"
"null","<div style=""font-size:60px;"">+</div>","null","html-keyboard-response","218","240125","0.0-6.0-0.106","MAGA","4","f","rechts","24","","fixation","","","",""
"875","img/60_180.png","70","image-keyboard-response","219","241001","0.0-6.0-1.106","MAGA","4","f","rechts","24","","","object","f","60","true"
"null","<div style=""font-size:60px;"">+</div>","null","html-keyboard-response","220","241352","0.0-6.0-0.107","MAGA","4","f","rechts","24","","fixation","","","",""
"671","img/120_330.png","74","image-keyboard-response","221","242025","0.0-6.0-1.107","MAGA","4","f","rechts","24","","","object","j","120","true"
"null","<div style=""font-size:60px;"">+</div>","null","html-keyboard-response","222","242526","0.0-6.0-0.108","MAGA","4","f","rechts","24","","fixation","","","",""
"1654","img/150_120.png","70","image-keyboard-response","223","244182","0.0-6.0-1.108","MAGA","4","f","rechts","24","","","object","f","150","true"
"null","<div style=""font-size:60px;"">+</div>","null","html-keyboard-response","224","244533","0.0-6.0-0.109","MAGA","4","f","rechts","24","","fixation","","","",""
"1565","img/90_180.png","70","image-keyboard-response","225","246100","0.0-6.0-1.109","MAGA","4","f","rechts","24","","","object","f","90","true"
"null","<div style=""font-size:60px;"">+</div>","null","html-keyboard-response","226","246501","0.0-6.0-0.110","MAGA","4","f","rechts","24","","fixation","","","",""
"1359","img/150_60.png","70","image-keyboard-response","227","247862","0.0-6.0-1.110","MAGA","4","f","rechts","24","","","object","f","150","true"
"null","<div style=""font-size:60px;"">+</div>","null","html-keyboard-response","228","248313","0.0-6.0-0.111","MAGA","4","f","rechts","24","","fixation","","","",""
"1247","img/150_240.png","74","image-keyboard-response","229","249561","0.0-6.0-1.111","MAGA","4","f","rechts","24","","","object","j","150","true"
"null","<div style=""font-size:60px;"">+</div>","null","html-keyboard-response","230","249963","0.0-6.0-0.112","MAGA","4","f","rechts","24","","fixation","","","",""
"798","img/L30_180.png","74","image-keyboard-response","231","250762","0.0-6.0-1.112","MAGA","4","f","rechts","24","","","object","j","30","true"
"null","<div style=""font-size:60px;"">+</div>","null","html-keyboard-response","232","251114","0.0-6.0-0.113","MAGA","4","f","rechts","24","","fixation","","","",""
"726","img/60_330.png","74","image-keyboard-response","233","251842","0.0-6.0-1.113","MAGA","4","f","rechts","24","","","object","j","60","true"
"null","<div style=""font-size:60px;"">+</div>","null","html-keyboard-response","234","252343","0.0-6.0-0.114","MAGA","4","f","rechts","24","","fixation","","","",""
"1414","img/L90_180.png","74","image-keyboard-response","235","253757","0.0-6.0-1.114","MAGA","4","f","rechts","24","","","object","j","90","true"
"null","<div style=""font-size:60px;"">+</div>","null","html-keyboard-response","236","254159","0.0-6.0-0.115","MAGA","4","f","rechts","24","","fixation","","","",""
"895","img/150_180.png","70","image-keyboard-response","237","255056","0.0-6.0-1.115","MAGA","4","f","rechts","24","","","object","f","150","true"
"null","<div style=""font-size:60px;"">+</div>","null","html-keyboard-response","238","255557","0.0-6.0-0.116","MAGA","4","f","rechts","24","","fixation","","","",""
"1072","img/L120_180.png","74","image-keyboard-response","239","256630","0.0-6.0-1.116","MAGA","4","f","rechts","24","","","object","j","120","true"
"null","<div style=""font-size:60px;"">+</div>","null","html-keyboard-response","240","256932","0.0-6.0-0.117","MAGA","4","f","rechts","24","","fixation","","","",""
"1266","img/90_60.png","70","image-keyboard-response","241","258199","0.0-6.0-1.117","MAGA","4","f","rechts","24","","","object","f","90","true"
"null","<div style=""font-size:60px;"">+</div>","null","html-keyboard-response","242","258651","0.0-6.0-0.118","MAGA","4","f","rechts","24","","fixation","","","",""
"842","img/0_30.png","74","image-keyboard-response","243","259494","0.0-6.0-1.118","MAGA","4","f","rechts","24","","","object","j","0","true"
"null","<div style=""font-size:60px;"">+</div>","null","html-keyboard-response","244","259946","0.0-6.0-0.119","MAGA","4","f","rechts","24","","fixation","","","",""
"1342","img/30_60.png","74","image-keyboard-response","245","261289","0.0-6.0-1.119","MAGA","4","f","rechts","24","","","object","j","30","true"
"null","<div style=""font-size:60px;"">+</div>","null","html-keyboard-response","246","261590","0.0-6.0-0.120","MAGA","4","f","rechts","24","","fixation","","","",""
"858","img/60_210.png","70","image-keyboard-response","247","262449","0.0-6.0-1.120","MAGA","4","f","rechts","24","","","object","f","60","true"
"null","<div style=""font-size:60px;"">+</div>","null","html-keyboard-response","248","262851","0.0-6.0-0.121","MAGA","4","f","rechts","24","","fixation","","","",""
"861","img/90_150.png","74","image-keyboard-response","249","263713","0.0-6.0-1.121","MAGA","4","f","rechts","24","","","object","j","90","true"
"null","<div style=""font-size:60px;"">+</div>","null","html-keyboard-response","250","264165","0.0-6.0-0.122","MAGA","4","f","rechts","24","","fixation","","","",""
"604","img/0_150.png","74","image-keyboard-response","251","264769","0.0-6.0-1.122","MAGA","4","f","rechts","24","","","object","j","0","true"
"null","<div style=""font-size:60px;"">+</div>","null","html-keyboard-response","252","265121","0.0-6.0-0.123","MAGA","4","f","rechts","24","","fixation","","","",""
"722","img/30_90.png","74","image-keyboard-response","253","265844","0.0-6.0-1.123","MAGA","4","f","rechts","24","","","object","j","30","true"
"null","<div style=""font-size:60px;"">+</div>","null","html-keyboard-response","254","266196","0.0-6.0-0.124","MAGA","4","f","rechts","24","","fixation","","","",""
"964","img/L150_180.png","74","image-keyboard-response","255","267161","0.0-6.0-1.124","MAGA","4","f","rechts","24","","","object","j","150","true"
"null","<div style=""font-size:60px;"">+</div>","null","html-keyboard-response","256","267663","0.0-6.0-0.125","MAGA","4","f","rechts","24","","fixation","","","",""
"786","img/90_30.png","70","image-keyboard-response","257","268450","0.0-6.0-1.125","MAGA","4","f","rechts","24","","","object","f","90","true"
"null","<div style=""font-size:60px;"">+</div>","null","html-keyboard-response","258","268852","0.0-6.0-0.126","MAGA","4","f","rechts","24","","fixation","","","",""
"1693","img/120_150.png","74","image-keyboard-response","259","270545","0.0-6.0-1.126","MAGA","4","f","rechts","24","","","object","j","120","true"
"null","<div style=""font-size:60px;"">+</div>","null","html-keyboard-response","260","270847","0.0-6.0-0.127","MAGA","4","f","rechts","24","","fixation","","","",""
"1520","img/120_210.png","70","image-keyboard-response","261","272367","0.0-6.0-1.127","MAGA","4","f","rechts","24","","","object","f","120","true"
"null","<div style=""font-size:60px;"">+</div>","null","html-keyboard-response","262","272668","0.0-6.0-0.128","MAGA","4","f","rechts","24","","fixation","","","",""
"1011","img/120_90.png","70","image-keyboard-response","263","273679","0.0-6.0-1.128","MAGA","4","f","rechts","24","","","object","f","120","true"
"null","<div style=""font-size:60px;"">+</div>","null","html-keyboard-response","264","274081","0.0-6.0-0.129","MAGA","4","f","rechts","24","","fixation","","","",""
"1558","img/90_210.png","70","image-keyboard-response","265","275639","0.0-6.0-1.129","MAGA","4","f","rechts","24","","","object","f","90","true"
"null","<div style=""font-size:60px;"">+</div>","null","html-keyboard-response","266","276041","0.0-6.0-0.130","MAGA","4","f","rechts","24","","fixation","","","",""
"631","img/0_60.png","74","image-keyboard-response","267","276672","0.0-6.0-1.130","MAGA","4","f","rechts","24","","","object","j","0","true"
"null","<div style=""font-size:60px;"">+</div>","null","html-keyboard-response","268","276974","0.0-6.0-0.131","MAGA","4","f","rechts","24","","fixation","","","",""
"777","img/L60_180.png","74","image-keyboard-response","269","277751","0.0-6.0-1.131","MAGA","4","f","rechts","24","","","object","j","60","true"
"null","<div style=""font-size:60px;"">+</div>","null","html-keyboard-response","270","278103","0.0-6.0-0.132","MAGA","4","f","rechts","24","","fixation","","","",""
"607","img/60_150.png","74","image-keyboard-response","271","278711","0.0-6.0-1.132","MAGA","4","f","rechts","24","","","object","j","60","true"
"null","<div style=""font-size:60px;"">+</div>","null","html-keyboard-response","272","279163","0.0-6.0-0.133","MAGA","4","f","rechts","24","","fixation","","","",""
"766","img/30_180.png","70","image-keyboard-response","273","279929","0.0-6.0-1.133","MAGA","4","f","rechts","24","","","object","f","30","true"
"null","<div style=""font-size:60px;"">+</div>","null","html-keyboard-response","274","280230","0.0-6.0-0.134","MAGA","4","f","rechts","24","","fixation","","","",""
"927","img/150_90.png","70","image-keyboard-response","275","281158","0.0-6.0-1.134","MAGA","4","f","rechts","24","","","object","f","150","true"
"null","<div style=""font-size:60px;"">+</div>","null","html-keyboard-response","276","281660","0.0-6.0-0.135","MAGA","4","f","rechts","24","","fixation","","","",""
"953","img/90_120.png","74","image-keyboard-response","277","282613","0.0-6.0-1.135","MAGA","4","f","rechts","24","","","object","j","90","true"
"null","<div style=""font-size:60px;"">+</div>","null","html-keyboard-response","278","283015","0.0-6.0-0.136","MAGA","4","f","rechts","24","","fixation","","","",""
"634","img/0_210.png","70","image-keyboard-response","279","283649","0.0-6.0-1.136","MAGA","4","f","rechts","24","","","object","f","0","true"
"null","<div style=""font-size:60px;"">+</div>","null","html-keyboard-response","280","284101","0.0-6.0-0.137","MAGA","4","f","rechts","24","","fixation","","","",""
"551","img/0_300.png","70","image-keyboard-response","281","284652","0.0-6.0-1.137","MAGA","4","f","rechts","24","","","object","f","0","true"
"null","<div style=""font-size:60px;"">+</div>","null","html-keyboard-response","282","285154","0.0-6.0-0.138","MAGA","4","f","rechts","24","","fixation","","","",""
"1004","img/30_270.png","70","image-keyboard-response","283","286159","0.0-6.0-1.138","MAGA","4","f","rechts","24","","","object","f","30","true"
"null","<div style=""font-size:60px;"">+</div>","null","html-keyboard-response","284","286511","0.0-6.0-0.139","MAGA","4","f","rechts","24","","fixation","","","",""
"731","img/60_30.png","74","image-keyboard-response","285","287244","0.0-6.0-1.139","MAGA","4","f","rechts","24","","","object","f","60","false"
"null","<div style=""font-size:60px;"">+</div>","null","html-keyboard-response","286","287545","0.0-6.0-0.140","MAGA","4","f","rechts","24","","fixation","","","",""
"693","img/120_30.png","70","image-keyboard-response","287","288239","0.0-6.0-1.140","MAGA","4","f","rechts","24","","","object","f","120","true"
"null","<div style=""font-size:60px;"">+</div>","null","html-keyboard-response","288","288740","0.0-6.0-0.141","MAGA","4","f","rechts","24","","fixation","","","",""
"766","img/90_300.png","74","image-keyboard-response","289","289507","0.0-6.0-1.141","MAGA","4","f","rechts","24","","","object","j","90","true"
"null","<div style=""font-size:60px;"">+</div>","null","html-keyboard-response","290","289909","0.0-6.0-0.142","MAGA","4","f","rechts","24","","fixation","","","",""
"1440","img/60_270.png","70","image-keyboard-response","291","291349","0.0-6.0-1.142","MAGA","4","f","rechts","24","","","object","f","60","true"
"null","<div style=""font-size:60px;"">+</div>","null","html-keyboard-response","292","291850","0.0-6.0-0.143","MAGA","4","f","rechts","24","","fixation","","","",""
"619","img/0_330.png","70","image-keyboard-response","293","292471","0.0-6.0-1.143","MAGA","4","f","rechts","24","","","object","f","0","true"
"null","<div style=""font-size:60px;"">+</div>","null","html-keyboard-response","294","292822","0.0-6.0-0.144","MAGA","4","f","rechts","24","","fixation","","","",""
"632","img/0_120.png","74","image-keyboard-response","295","293456","0.0-6.0-1.144","MAGA","4","f","rechts","24","","","object","j","0","true"
"null","<div style=""font-size:60px;"">+</div>","null","html-keyboard-response","296","293807","0.0-6.0-0.145","MAGA","4","f","rechts","24","","fixation","","","",""
"586","img/0_90.png","74","image-keyboard-response","297","294395","0.0-6.0-1.145","MAGA","4","f","rechts","24","","","object","j","0","true"
"null","<div style=""font-size:60px;"">+</div>","null","html-keyboard-response","298","294846","0.0-6.0-0.146","MAGA","4","f","rechts","24","","fixation","","","",""
"923","img/30_120.png","74","image-keyboard-response","299","295771","0.0-6.0-1.146","MAGA","4","f","rechts","24","","","object","j","30","true"
"null","<div style=""font-size:60px;"">+</div>","null","html-keyboard-response","300","296221","0.0-6.0-0.147","MAGA","4","f","rechts","24","","fixation","","","",""
"605","img/0_240.png","70","image-keyboard-response","301","296828","0.0-6.0-1.147","MAGA","4","f","rechts","24","","","object","f","0","true"
"null","<div style=""font-size:60px;"">+</div>","null","html-keyboard-response","302","297279","0.0-6.0-0.148","MAGA","4","f","rechts","24","","fixation","","","",""
"953","img/120_270.png","74","image-keyboard-response","303","298234","0.0-6.0-1.148","MAGA","4","f","rechts","24","","","object","j","120","true"
"null","<div style=""font-size:60px;"">+</div>","null","html-keyboard-response","304","298585","0.0-6.0-0.149","MAGA","4","f","rechts","24","","fixation","","","",""
"757","img/150_270.png","74","image-keyboard-response","305","299344","0.0-6.0-1.149","MAGA","4","f","rechts","24","","","object","j","150","true"
"null","<div style=""font-size:60px;"">+</div>","null","html-keyboard-response","306","299845","0.0-6.0-0.150","MAGA","4","f","rechts","24","","fixation","","","",""
"699","img/0_270.png","70","image-keyboard-response","307","300546","0.0-6.0-1.150","MAGA","4","f","rechts","24","","","object","f","0","true"
"null","<div style=""font-size:60px;"">+</div>","null","html-keyboard-response","308","301047","0.0-6.0-0.151","MAGA","4","f","rechts","24","","fixation","","","",""
"1140","img/150_300.png","74","image-keyboard-response","309","302188","0.0-6.0-1.151","MAGA","4","f","rechts","24","","","object","j","150","true"
"null","<div style=""font-size:60px;"">+</div>","null","html-keyboard-response","310","302590","0.0-6.0-0.152","MAGA","4","f","rechts","24","","fixation","","","",""
"1072","img/120_180.png","70","image-keyboard-response","311","303663","0.0-6.0-1.152","MAGA","4","f","rechts","24","","","object","f","120","true"
"null","<div style=""font-size:60px;"">+</div>","null","html-keyboard-response","312","304015","0.0-6.0-0.153","MAGA","4","f","rechts","24","","fixation","","","",""
"1117","img/60_90.png","70","image-keyboard-response","313","305132","0.0-6.0-1.153","MAGA","4","f","rechts","24","","","object","j","60","false"
"null","<div style=""font-size:60px;"">+</div>","null","html-keyboard-response","314","305634","0.0-6.0-0.154","MAGA","4","f","rechts","24","","fixation","","","",""
"1942","img/30_240.png","70","image-keyboard-response","315","307577","0.0-6.0-1.154","MAGA","4","f","rechts","24","","","object","f","30","true"
"null","<div style=""font-size:60px;"">+</div>","null","html-keyboard-response","316","307879","0.0-6.0-0.155","MAGA","4","f","rechts","24","","fixation","","","",""
"702","img/30_300.png","70","image-keyboard-response","317","308582","0.0-6.0-1.155","MAGA","4","f","rechts","24","","","object","f","30","true"
"null","<div style=""font-size:60px;"">+</div>","null","html-keyboard-response","318","308884","0.0-6.0-0.156","MAGA","4","f","rechts","24","","fixation","","","",""
"645","img/0_60.png","74","image-keyboard-response","319","309530","0.0-6.0-1.156","MAGA","4","f","rechts","24","","","object","j","0","true"
"null","<div style=""font-size:60px;"">+</div>","null","html-keyboard-response","320","309832","0.0-6.0-0.157","MAGA","4","f","rechts","24","","fixation","","","",""
"955","img/L150_180.png","74","image-keyboard-response","321","310788","0.0-6.0-1.157","MAGA","4","f","rechts","24","","","object","j","150","true"
"null","<div style=""font-size:60px;"">+</div>","null","html-keyboard-response","322","311239","0.0-6.0-0.158","MAGA","4","f","rechts","24","","fixation","","","",""
"843","img/L120_180.png","74","image-keyboard-response","323","312083","0.0-6.0-1.158","MAGA","4","f","rechts","24","","","object","j","120","true"
"null","<div style=""font-size:60px;"">+</div>","null","html-keyboard-response","324","312434","0.0-6.0-0.159","MAGA","4","f","rechts","24","","fixation","","","",""
"681","img/0_150.png","74","image-keyboard-response","325","313116","0.0-6.0-1.159","MAGA","4","f","rechts","24","","","object","j","0","true"
"null","<div style=""font-size:60px;"">+</div>","null","html-keyboard-response","326","313518","0.0-6.0-0.160","MAGA","4","f","rechts","24","","fixation","","","",""
"717","img/30_270.png","70","image-keyboard-response","327","314235","0.0-6.0-1.160","MAGA","4","f","rechts","24","","","object","f","30","true"
"null","<div style=""font-size:60px;"">+</div>","null","html-keyboard-response","328","314737","0.0-6.0-0.161","MAGA","4","f","rechts","24","","fixation","","","",""
"729","img/60_150.png","74","image-keyboard-response","329","315466","0.0-6.0-1.161","MAGA","4","f","rechts","24","","","object","j","60","true"
"null","<div style=""font-size:60px;"">+</div>","null","html-keyboard-response","330","315868","0.0-6.0-0.162","MAGA","4","f","rechts","24","","fixation","","","",""
"746","img/90_150.png","74","image-keyboard-response","331","316615","0.0-6.0-1.162","MAGA","4","f","rechts","24","","","object","j","90","true"
"null","<div style=""font-size:60px;"">+</div>","null","html-keyboard-response","332","316967","0.0-6.0-0.163","MAGA","4","f","rechts","24","","fixation","","","",""
"900","img/30_180.png","70","image-keyboard-response","333","317868","0.0-6.0-1.163","MAGA","4","f","rechts","24","","","object","f","30","true"
"null","<div style=""font-size:60px;"">+</div>","null","html-keyboard-response","334","318320","0.0-6.0-0.164","MAGA","4","f","rechts","24","","fixation","","","",""
"1310","img/150_300.png","74","image-keyboard-response","335","319631","0.0-6.0-1.164","MAGA","4","f","rechts","24","","","object","j","150","true"
"null","<div style=""font-size:60px;"">+</div>","null","html-keyboard-response","336","320033","0.0-6.0-0.165","MAGA","4","f","rechts","24","","fixation","","","",""
"1080","img/150_180.png","70","image-keyboard-response","337","321113","0.0-6.0-1.165","MAGA","4","f","rechts","24","","","object","f","150","true"
"null","<div style=""font-size:60px;"">+</div>","null","html-keyboard-response","338","321515","0.0-6.0-0.166","MAGA","4","f","rechts","24","","fixation","","","",""
"1064","img/90_240.png","70","image-keyboard-response","339","322580","0.0-6.0-1.166","MAGA","4","f","rechts","24","","","object","f","90","true"
"null","<div style=""font-size:60px;"">+</div>","null","html-keyboard-response","340","323031","0.0-6.0-0.167","MAGA","4","f","rechts","24","","fixation","","","",""
"717","img/L60_180.png","74","image-keyboard-response","341","323749","0.0-6.0-1.167","MAGA","4","f","rechts","24","","","object","j","60","true"
"null","<div style=""font-size:60px;"">+</div>","null","html-keyboard-response","342","324201","0.0-6.0-0.168","MAGA","4","f","rechts","24","","fixation","","","",""
"618","img/0_300.png","70","image-keyboard-response","343","324820","0.0-6.0-1.168","MAGA","4","f","rechts","24","","","object","f","0","true"
"null","<div style=""font-size:60px;"">+</div>","null","html-keyboard-response","344","325122","0.0-6.0-0.169","MAGA","4","f","rechts","24","","fixation","","","",""
"924","img/120_150.png","74","image-keyboard-response","345","326046","0.0-6.0-1.169","MAGA","4","f","rechts","24","","","object","j","120","true"
"null","<div style=""font-size:60px;"">+</div>","null","html-keyboard-response","346","326348","0.0-6.0-0.170","MAGA","4","f","rechts","24","","fixation","","","",""
"1068","img/90_210.png","70","image-keyboard-response","347","327417","0.0-6.0-1.170","MAGA","4","f","rechts","24","","","object","f","90","true"
"null","<div style=""font-size:60px;"">+</div>","null","html-keyboard-response","348","327918","0.0-6.0-0.171","MAGA","4","f","rechts","24","","fixation","","","",""
"778","img/60_210.png","70","image-keyboard-response","349","328697","0.0-6.0-1.171","MAGA","4","f","rechts","24","","","object","f","60","true"
"null","<div style=""font-size:60px;"">+</div>","null","html-keyboard-response","350","329048","0.0-6.0-0.172","MAGA","4","f","rechts","24","","fixation","","","",""
"666","img/0_90.png","74","image-keyboard-response","351","329715","0.0-6.0-1.172","MAGA","4","f","rechts","24","","","object","j","0","true"
"null","<div style=""font-size:60px;"">+</div>","null","html-keyboard-response","352","330117","0.0-6.0-0.173","MAGA","4","f","rechts","24","","fixation","","","",""
"1178","img/30_300.png","74","image-keyboard-response","353","331295","0.0-6.0-1.173","MAGA","4","f","rechts","24","","","object","f","30","false"
"null","<div style=""font-size:60px;"">+</div>","null","html-keyboard-response","354","331797","0.0-6.0-0.174","MAGA","4","f","rechts","24","","fixation","","","",""
"1234","img/90_120.png","74","image-keyboard-response","355","333031","0.0-6.0-1.174","MAGA","4","f","rechts","24","","","object","j","90","true"
"null","<div style=""font-size:60px;"">+</div>","null","html-keyboard-response","356","333532","0.0-6.0-0.175","MAGA","4","f","rechts","24","","fixation","","","",""
"826","img/60_330.png","74","image-keyboard-response","357","334359","0.0-6.0-1.175","MAGA","4","f","rechts","24","","","object","j","60","true"
"null","<div style=""font-size:60px;"">+</div>","null","html-keyboard-response","358","334861","0.0-6.0-0.176","MAGA","4","f","rechts","24","","fixation","","","",""
"761","img/30_120.png","70","image-keyboard-response","359","335622","0.0-6.0-1.176","MAGA","4","f","rechts","24","","","object","j","30","false"
"null","<div style=""font-size:60px;"">+</div>","null","html-keyboard-response","360","335974","0.0-6.0-0.177","MAGA","4","f","rechts","24","","fixation","","","",""
"712","img/30_60.png","74","image-keyboard-response","361","336687","0.0-6.0-1.177","MAGA","4","f","rechts","24","","","object","j","30","true"
"null","<div style=""font-size:60px;"">+</div>","null","html-keyboard-response","362","337039","0.0-6.0-0.178","MAGA","4","f","rechts","24","","fixation","","","",""
"1929","img/120_270.png","74","image-keyboard-response","363","338969","0.0-6.0-1.178","MAGA","4","f","rechts","24","","","object","j","120","true"
"null","<div style=""font-size:60px;"">+</div>","null","html-keyboard-response","364","339370","0.0-6.0-0.179","MAGA","4","f","rechts","24","","fixation","","","",""
"793","img/90_300.png","74","image-keyboard-response","365","340164","0.0-6.0-1.179","MAGA","4","f","rechts","24","","","object","j","90","true"
"null","<div style=""font-size:60px;"">+</div>","null","html-keyboard-response","366","340465","0.0-6.0-0.180","MAGA","4","f","rechts","24","","fixation","","","",""
"597","img/120_330.png","74","image-keyboard-response","367","341063","0.0-6.0-1.180","MAGA","4","f","rechts","24","","","object","j","120","true"
"null","<div style=""font-size:60px;"">+</div>","null","html-keyboard-response","368","341514","0.0-6.0-0.181","MAGA","4","f","rechts","24","","fixation","","","",""
"712","img/120_30.png","70","image-keyboard-response","369","342227","0.0-6.0-1.181","MAGA","4","f","rechts","24","","","object","f","120","true"
"null","<div style=""font-size:60px;"">+</div>","null","html-keyboard-response","370","342679","0.0-6.0-0.182","MAGA","4","f","rechts","24","","fixation","","","",""
"582","img/60_30.png","70","image-keyboard-response","371","343261","0.0-6.0-1.182","MAGA","4","f","rechts","24","","","object","f","60","true"
"null","<div style=""font-size:60px;"">+</div>","null","html-keyboard-response","372","343763","0.0-6.0-0.183","MAGA","4","f","rechts","24","","fixation","","","",""
"739","img/0_270.png","70","image-keyboard-response","373","344503","0.0-6.0-1.183","MAGA","4","f","rechts","24","","","object","f","0","true"
"null","<div style=""font-size:60px;"">+</div>","null","html-keyboard-response","374","344804","0.0-6.0-0.184","MAGA","4","f","rechts","24","","fixation","","","",""
"594","img/0_330.png","70","image-keyboard-response","375","345399","0.0-6.0-1.184","MAGA","4","f","rechts","24","","","object","f","0","true"
"null","<div style=""font-size:60px;"">+</div>","null","html-keyboard-response","376","345800","0.0-6.0-0.185","MAGA","4","f","rechts","24","","fixation","","","",""
"659","img/90_330.png","74","image-keyboard-response","377","346461","0.0-6.0-1.185","MAGA","4","f","rechts","24","","","object","j","90","true"
"null","<div style=""font-size:60px;"">+</div>","null","html-keyboard-response","378","346762","0.0-6.0-0.186","MAGA","4","f","rechts","24","","fixation","","","",""
"1471","img/60_270.png","70","image-keyboard-response","379","348235","0.0-6.0-1.186","MAGA","4","f","rechts","24","","","object","f","60","true"
"null","<div style=""font-size:60px;"">+</div>","null","html-keyboard-response","380","348686","0.0-6.0-0.187","MAGA","4","f","rechts","24","","fixation","","","",""
"1726","img/120_210.png","70","image-keyboard-response","381","350414","0.0-6.0-1.187","MAGA","4","f","rechts","24","","","object","f","120","true"
"null","<div style=""font-size:60px;"">+</div>","null","html-keyboard-response","382","350865","0.0-6.0-0.188","MAGA","4","f","rechts","24","","fixation","","","",""
"1411","img/120_180.png","70","image-keyboard-response","383","352278","0.0-6.0-1.188","MAGA","4","f","rechts","24","","","object","f","120","true"
"null","<div style=""font-size:60px;"">+</div>","null","html-keyboard-response","384","352629","0.0-6.0-0.189","MAGA","4","f","rechts","24","","fixation","","","",""
"652","img/0_210.png","70","image-keyboard-response","385","353282","0.0-6.0-1.189","MAGA","4","f","rechts","24","","","object","f","0","true"
"null","<div style=""font-size:60px;"">+</div>","null","html-keyboard-response","386","353584","0.0-6.0-0.190","MAGA","4","f","rechts","24","","fixation","","","",""
"507","img/0_240.png","70","image-keyboard-response","387","354092","0.0-6.0-1.190","MAGA","4","f","rechts","24","","","object","f","0","true"
"null","<div style=""font-size:60px;"">+</div>","null","html-keyboard-response","388","354544","0.0-6.0-0.191","MAGA","4","f","rechts","24","","fixation","","","",""
"460","img/30_240.png","70","image-keyboard-response","389","355005","0.0-6.0-1.191","MAGA","4","f","rechts","24","","","object","f","30","true"
"null","<div style=""font-size:60px;"">+</div>","null","html-keyboard-response","390","355407","0.0-6.0-0.192","MAGA","4","f","rechts","24","","fixation","","","",""
"973","img/60_90.png","74","image-keyboard-response","391","356381","0.0-6.0-1.192","MAGA","4","f","rechts","24","","","object","j","60","true"
"null","<div style=""font-size:60px;"">+</div>","null","html-keyboard-response","392","356683","0.0-6.0-0.193","MAGA","4","f","rechts","24","","fixation","","","",""
"720","img/0_120.png","74","image-keyboard-response","393","357404","0.0-6.0-1.193","MAGA","4","f","rechts","24","","","object","j","0","true"
"null","<div style=""font-size:60px;"">+</div>","null","html-keyboard-response","394","357806","0.0-6.0-0.194","MAGA","4","f","rechts","24","","fixation","","","",""
"889","img/90_180.png","70","image-keyboard-response","395","358696","0.0-6.0-1.194","MAGA","4","f","rechts","24","","","object","f","90","true"
"null","<div style=""font-size:60px;"">+</div>","null","html-keyboard-response","396","358997","0.0-6.0-0.195","MAGA","4","f","rechts","24","","fixation","","","",""
"1067","img/150_60.png","70","image-keyboard-response","397","360064","0.0-6.0-1.195","MAGA","4","f","rechts","24","","","object","f","150","true"
"null","<div style=""font-size:60px;"">+</div>","null","html-keyboard-response","398","360416","0.0-6.0-0.196","MAGA","4","f","rechts","24","","fixation","","","",""
"1296","img/150_270.png","74","image-keyboard-response","399","361713","0.0-6.0-1.196","MAGA","4","f","rechts","24","","","object","j","150","true"
"null","<div style=""font-size:60px;"">+</div>","null","html-keyboard-response","400","362115","0.0-6.0-0.197","MAGA","4","f","rechts","24","","fixation","","","",""
"1268","img/90_60.png","70","image-keyboard-response","401","363384","0.0-6.0-1.197","MAGA","4","f","rechts","24","","","object","f","90","true"
"null","<div style=""font-size:60px;"">+</div>","null","html-keyboard-response","402","363836","0.0-6.0-0.198","MAGA","4","f","rechts","24","","fixation","","","",""
"1136","img/60_180.png","70","image-keyboard-response","403","364973","0.0-6.0-1.198","MAGA","4","f","rechts","24","","","object","f","60","true"
"null","<div style=""font-size:60px;"">+</div>","null","html-keyboard-response","404","365475","0.0-6.0-0.199","MAGA","4","f","rechts","24","","fixation","","","",""
"621","img/0_30.png","74","image-keyboard-response","405","366096","0.0-6.0-1.199","MAGA","4","f","rechts","24","","","object","j","0","true"
"null","<div style=""font-size:60px;"">+</div>","null","html-keyboard-response","406","366448","0.0-6.0-0.200","MAGA","4","f","rechts","24","","fixation","","","",""
"1151","img/150_90.png","70","image-keyboard-response","407","367599","0.0-6.0-1.200","MAGA","4","f","rechts","24","","","object","f","150","true"
"null","<div style=""font-size:60px;"">+</div>","null","html-keyboard-response","408","368051","0.0-6.0-0.201","MAGA","4","f","rechts","24","","fixation","","","",""
"723","img/150_120.png","70","image-keyboard-response","409","368775","0.0-6.0-1.201","MAGA","4","f","rechts","24","","","object","f","150","true"
"null","<div style=""font-size:60px;"">+</div>","null","html-keyboard-response","410","369227","0.0-6.0-0.202","MAGA","4","f","rechts","24","","fixation","","","",""
"1078","img/30_90.png","74","image-keyboard-response","411","370307","0.0-6.0-1.202","MAGA","4","f","rechts","24","","","object","j","30","true"
"null","<div style=""font-size:60px;"">+</div>","null","html-keyboard-response","412","370608","0.0-6.0-0.203","MAGA","4","f","rechts","24","","fixation","","","",""
"1264","img/120_90.png","70","image-keyboard-response","413","371873","0.0-6.0-1.203","MAGA","4","f","rechts","24","","","object","f","120","true"
"null","<div style=""font-size:60px;"">+</div>","null","html-keyboard-response","414","372274","0.0-6.0-0.204","MAGA","4","f","rechts","24","","fixation","","","",""
"1064","img/L90_180.png","74","image-keyboard-response","415","373340","0.0-6.0-1.204","MAGA","4","f","rechts","24","","","object","j","90","true"
"null","<div style=""font-size:60px;"">+</div>","null","html-keyboard-response","416","373791","0.0-6.0-0.205","MAGA","4","f","rechts","24","","fixation","","","",""
"752","img/90_30.png","70","image-keyboard-response","417","374544","0.0-6.0-1.205","MAGA","4","f","rechts","24","","","object","f","90","true"
"null","<div style=""font-size:60px;"">+</div>","null","html-keyboard-response","418","375046","0.0-6.0-0.206","MAGA","4","f","rechts","24","","fixation","","","",""
"1255","img/150_240.png","74","image-keyboard-response","419","376301","0.0-6.0-1.206","MAGA","4","f","rechts","24","","","object","j","150","true"
"null","<div style=""font-size:60px;"">+</div>","null","html-keyboard-response","420","376752","0.0-6.0-0.207","MAGA","4","f","rechts","24","","fixation","","","",""
"1007","img/L30_180.png","74","image-keyboard-response","421","377759","0.0-6.0-1.207","MAGA","4","f","rechts","24","","","object","j","30","true"
"7641","<p>Du hast in 92% der Versuche korrekt entschieden.</p><p>Deine durchschnittliche Reaktionszeit war  965ms.</p><p>Dr&uuml;cke eine beliebige Taste, um die Session zu beenden. Vielen Dank!</p>","68","html-keyboard-response","422","385401","0.0-7.0","MAGA","4","f","rechts","24","","","","","",""
