"rt","stimulus","key_press","trial_type","trial_index","time_elapsed","internal_node_id","subject","session","sex","handedness","age","responses","test_part","condition","correct_response","angle","correct"
"977","<p>Mental Rotation Experiment.</p> <p>Dr&uuml;cke eine beliebige Taste, um anzufangen.</p>","70","html-keyboard-response","0","979","0.0-0.0","MAGA","3","f","rechts","24","","","","","",""
"2353","","","survey-text","1","3333","0.0-1.0","MAGA","3","f","rechts","24","{""Q0"":""MAGA""}","","","","",""
"1903","","","survey-text","2","5236","0.0-2.0","MAGA","3","f","rechts","24","{""Q0"":""3""}","","","","",""
"2906","","","survey-multi-choice","3","8144","0.0-3.0","MAGA","3","f","rechts","24","{""Q0"":""f"",""Q1"":""rechts""}","","","","",""
"1918","","","survey-text","4","10063","0.0-4.0","MAGA","3","f","rechts","24","{""Q0"":""24""}","","","","",""
"17881","<p> Stell dir vor, dass du vor einem runden Tisch stehst, auf dem sich ein blauer Ball am Tischrand befindet. Entlang des Tischrands ist jeweils ein verschieden langer Pfeil. Nun bewegst du dich entlang dieses Pfeils bis an seine Spitze. Wenn du am Ende des Pfeils angekommen bist, schau zur Tischmitte. </p> <img src='img/90_180.png'></img> <br> <p>Entscheide dann, ob der Ball von deiner neuen (vorgestellten) Position links oder rechts von dir liegt.</p> <p>Dr&uuml;cke die <strong>'f'</strong>-Taste f&uuml;r links, die <strong>'j'</strong>-Taste f&uuml;r rechts.</p> <br><p> Das Bild wird jeweils 1 Sekunde lang pr&auml;sentiert. Du hast 3 Sekunden Zeit eine Entscheidung zu treffen.</p>","74","html-keyboard-response","5","27945","0.0-5.0","MAGA","3","f","rechts","24","","","","","",""
"null","<div style=""font-size:60px;"">+</div>","null","html-keyboard-response","6","29449","0.0-6.0-0.0","MAGA","3","f","rechts","24","","fixation","","","",""
"820","img/30_270.png","70","image-keyboard-response","7","30270","0.0-6.0-1.0","MAGA","3","f","rechts","24","","","self","f","30","true"
"null","<div style=""font-size:60px;"">+</div>","null","html-keyboard-response","8","30572","0.0-6.0-0.1","MAGA","3","f","rechts","24","","fixation","","","",""
"739","img/60_330.png","70","image-keyboard-response","9","31312","0.0-6.0-1.1","MAGA","3","f","rechts","24","","","self","f","60","true"
"null","<div style=""font-size:60px;"">+</div>","null","html-keyboard-response","10","31664","0.0-6.0-0.2","MAGA","3","f","rechts","24","","fixation","","","",""
"708","img/L90_180.png","70","image-keyboard-response","11","32374","0.0-6.0-1.2","MAGA","3","f","rechts","24","","","self","f","90","true"
"null","<div style=""font-size:60px;"">+</div>","null","html-keyboard-response","12","32725","0.0-6.0-0.3","MAGA","3","f","rechts","24","","fixation","","","",""
"653","img/120_150.png","70","image-keyboard-response","13","33380","0.0-6.0-1.3","MAGA","3","f","rechts","24","","","self","f","120","true"
"null","<div style=""font-size:60px;"">+</div>","null","html-keyboard-response","14","33681","0.0-6.0-0.4","MAGA","3","f","rechts","24","","fixation","","","",""
"639","img/120_210.png","74","image-keyboard-response","15","34322","0.0-6.0-1.4","MAGA","3","f","rechts","24","","","self","j","120","true"
"null","<div style=""font-size:60px;"">+</div>","null","html-keyboard-response","16","34823","0.0-6.0-0.5","MAGA","3","f","rechts","24","","fixation","","","",""
"637","img/90_180.png","74","image-keyboard-response","17","35462","0.0-6.0-1.5","MAGA","3","f","rechts","24","","","self","j","90","true"
"null","<div style=""font-size:60px;"">+</div>","null","html-keyboard-response","18","35963","0.0-6.0-0.6","MAGA","3","f","rechts","24","","fixation","","","",""
"795","img/150_60.png","70","image-keyboard-response","19","36760","0.0-6.0-1.6","MAGA","3","f","rechts","24","","","self","f","150","true"
"null","<div style=""font-size:60px;"">+</div>","null","html-keyboard-response","20","37261","0.0-6.0-0.7","MAGA","3","f","rechts","24","","fixation","","","",""
"643","img/30_300.png","70","image-keyboard-response","21","37906","0.0-6.0-1.7","MAGA","3","f","rechts","24","","","self","f","30","true"
"null","<div style=""font-size:60px;"">+</div>","null","html-keyboard-response","22","38407","0.0-6.0-0.8","MAGA","3","f","rechts","24","","fixation","","","",""
"740","img/30_240.png","70","image-keyboard-response","23","39149","0.0-6.0-1.8","MAGA","3","f","rechts","24","","","self","f","30","true"
"null","<div style=""font-size:60px;"">+</div>","null","html-keyboard-response","24","39450","0.0-6.0-0.9","MAGA","3","f","rechts","24","","fixation","","","",""
"739","img/0_60.png","74","image-keyboard-response","25","40191","0.0-6.0-1.9","MAGA","3","f","rechts","24","","","self","j","0","true"
"null","<div style=""font-size:60px;"">+</div>","null","html-keyboard-response","26","40592","0.0-6.0-0.10","MAGA","3","f","rechts","24","","fixation","","","",""
"812","img/90_240.png","74","image-keyboard-response","27","41405","0.0-6.0-1.10","MAGA","3","f","rechts","24","","","self","j","90","true"
"null","<div style=""font-size:60px;"">+</div>","null","html-keyboard-response","28","41707","0.0-6.0-0.11","MAGA","3","f","rechts","24","","fixation","","","",""
"597","img/0_330.png","70","image-keyboard-response","29","42305","0.0-6.0-1.11","MAGA","3","f","rechts","24","","","self","f","0","true"
"null","<div style=""font-size:60px;"">+</div>","null","html-keyboard-response","30","42807","0.0-6.0-0.12","MAGA","3","f","rechts","24","","fixation","","","",""
"668","img/30_60.png","74","image-keyboard-response","31","43476","0.0-6.0-1.12","MAGA","3","f","rechts","24","","","self","j","30","true"
"null","<div style=""font-size:60px;"">+</div>","null","html-keyboard-response","32","43878","0.0-6.0-0.13","MAGA","3","f","rechts","24","","fixation","","","",""
"633","img/150_240.png","74","image-keyboard-response","33","44513","0.0-6.0-1.13","MAGA","3","f","rechts","24","","","self","j","150","true"
"null","<div style=""font-size:60px;"">+</div>","null","html-keyboard-response","34","44914","0.0-6.0-0.14","MAGA","3","f","rechts","24","","fixation","","","",""
"698","img/60_180.png","74","image-keyboard-response","35","45613","0.0-6.0-1.14","MAGA","3","f","rechts","24","","","self","j","60","true"
"null","<div style=""font-size:60px;"">+</div>","null","html-keyboard-response","36","46015","0.0-6.0-0.15","MAGA","3","f","rechts","24","","fixation","","","",""
"604","img/0_150.png","74","image-keyboard-response","37","46620","0.0-6.0-1.15","MAGA","3","f","rechts","24","","","self","j","0","true"
"null","<div style=""font-size:60px;"">+</div>","null","html-keyboard-response","38","46922","0.0-6.0-0.16","MAGA","3","f","rechts","24","","fixation","","","",""
"750","img/60_210.png","74","image-keyboard-response","39","47672","0.0-6.0-1.16","MAGA","3","f","rechts","24","","","self","j","60","true"
"null","<div style=""font-size:60px;"">+</div>","null","html-keyboard-response","40","48074","0.0-6.0-0.17","MAGA","3","f","rechts","24","","fixation","","","",""
"771","img/150_180.png","74","image-keyboard-response","41","48845","0.0-6.0-1.17","MAGA","3","f","rechts","24","","","self","j","150","true"
"null","<div style=""font-size:60px;"">+</div>","null","html-keyboard-response","42","49197","0.0-6.0-0.18","MAGA","3","f","rechts","24","","fixation","","","",""
"765","img/0_240.png","70","image-keyboard-response","43","49963","0.0-6.0-1.18","MAGA","3","f","rechts","24","","","self","f","0","true"
"null","<div style=""font-size:60px;"">+</div>","null","html-keyboard-response","44","50265","0.0-6.0-0.19","MAGA","3","f","rechts","24","","fixation","","","",""
"830","img/120_330.png","70","image-keyboard-response","45","51095","0.0-6.0-1.19","MAGA","3","f","rechts","24","","","self","f","120","true"
"null","<div style=""font-size:60px;"">+</div>","null","html-keyboard-response","46","51497","0.0-6.0-0.20","MAGA","3","f","rechts","24","","fixation","","","",""
"789","img/60_30.png","74","image-keyboard-response","47","52287","0.0-6.0-1.20","MAGA","3","f","rechts","24","","","self","j","60","true"
"null","<div style=""font-size:60px;"">+</div>","null","html-keyboard-response","48","52639","0.0-6.0-0.21","MAGA","3","f","rechts","24","","fixation","","","",""
"831","img/90_210.png","74","image-keyboard-response","49","53471","0.0-6.0-1.21","MAGA","3","f","rechts","24","","","self","j","90","true"
"null","<div style=""font-size:60px;"">+</div>","null","html-keyboard-response","50","53873","0.0-6.0-0.22","MAGA","3","f","rechts","24","","fixation","","","",""
"673","img/0_30.png","74","image-keyboard-response","51","54547","0.0-6.0-1.22","MAGA","3","f","rechts","24","","","self","j","0","true"
"null","<div style=""font-size:60px;"">+</div>","null","html-keyboard-response","52","54949","0.0-6.0-0.23","MAGA","3","f","rechts","24","","fixation","","","",""
"983","img/90_60.png","74","image-keyboard-response","53","55933","0.0-6.0-1.23","MAGA","3","f","rechts","24","","","self","j","90","true"
"null","<div style=""font-size:60px;"">+</div>","null","html-keyboard-response","54","56385","0.0-6.0-0.24","MAGA","3","f","rechts","24","","fixation","","","",""
"730","img/60_270.png","70","image-keyboard-response","55","57115","0.0-6.0-1.24","MAGA","3","f","rechts","24","","","self","f","60","true"
"null","<div style=""font-size:60px;"">+</div>","null","html-keyboard-response","56","57467","0.0-6.0-0.25","MAGA","3","f","rechts","24","","fixation","","","",""
"918","img/120_180.png","74","image-keyboard-response","57","58386","0.0-6.0-1.25","MAGA","3","f","rechts","24","","","self","j","120","true"
"null","<div style=""font-size:60px;"">+</div>","null","html-keyboard-response","58","58888","0.0-6.0-0.26","MAGA","3","f","rechts","24","","fixation","","","",""
"987","img/60_150.png","70","image-keyboard-response","59","59876","0.0-6.0-1.26","MAGA","3","f","rechts","24","","","self","f","60","true"
"null","<div style=""font-size:60px;"">+</div>","null","html-keyboard-response","60","60277","0.0-6.0-0.27","MAGA","3","f","rechts","24","","fixation","","","",""
"667","img/60_90.png","74","image-keyboard-response","61","60945","0.0-6.0-1.27","MAGA","3","f","rechts","24","","","self","j","60","true"
"null","<div style=""font-size:60px;"">+</div>","null","html-keyboard-response","62","61297","0.0-6.0-0.28","MAGA","3","f","rechts","24","","fixation","","","",""
"925","img/L60_180.png","70","image-keyboard-response","63","62223","0.0-6.0-1.28","MAGA","3","f","rechts","24","","","self","f","60","true"
"null","<div style=""font-size:60px;"">+</div>","null","html-keyboard-response","64","62525","0.0-6.0-0.29","MAGA","3","f","rechts","24","","fixation","","","",""
"837","img/30_90.png","74","image-keyboard-response","65","63362","0.0-6.0-1.29","MAGA","3","f","rechts","24","","","self","j","30","true"
"null","<div style=""font-size:60px;"">+</div>","null","html-keyboard-response","66","63714","0.0-6.0-0.30","MAGA","3","f","rechts","24","","fixation","","","",""
"805","img/0_120.png","74","image-keyboard-response","67","64519","0.0-6.0-1.30","MAGA","3","f","rechts","24","","","self","j","0","true"
"null","<div style=""font-size:60px;"">+</div>","null","html-keyboard-response","68","64971","0.0-6.0-0.31","MAGA","3","f","rechts","24","","fixation","","","",""
"685","img/0_300.png","70","image-keyboard-response","69","65657","0.0-6.0-1.31","MAGA","3","f","rechts","24","","","self","f","0","true"
"null","<div style=""font-size:60px;"">+</div>","null","html-keyboard-response","70","66059","0.0-6.0-0.32","MAGA","3","f","rechts","24","","fixation","","","",""
"1079","img/90_120.png","70","image-keyboard-response","71","67139","0.0-6.0-1.32","MAGA","3","f","rechts","24","","","self","f","90","true"
"null","<div style=""font-size:60px;"">+</div>","null","html-keyboard-response","72","67441","0.0-6.0-0.33","MAGA","3","f","rechts","24","","fixation","","","",""
"789","img/L120_180.png","70","image-keyboard-response","73","68231","0.0-6.0-1.33","MAGA","3","f","rechts","24","","","self","f","120","true"
"null","<div style=""font-size:60px;"">+</div>","null","html-keyboard-response","74","68733","0.0-6.0-0.34","MAGA","3","f","rechts","24","","fixation","","","",""
"888","img/120_30.png","74","image-keyboard-response","75","69621","0.0-6.0-1.34","MAGA","3","f","rechts","24","","","self","j","120","true"
"null","<div style=""font-size:60px;"">+</div>","null","html-keyboard-response","76","70073","0.0-6.0-0.35","MAGA","3","f","rechts","24","","fixation","","","",""
"787","img/L30_180.png","70","image-keyboard-response","77","70860","0.0-6.0-1.35","MAGA","3","f","rechts","24","","","self","f","30","true"
"null","<div style=""font-size:60px;"">+</div>","null","html-keyboard-response","78","71212","0.0-6.0-0.36","MAGA","3","f","rechts","24","","fixation","","","",""
"872","img/90_330.png","70","image-keyboard-response","79","72085","0.0-6.0-1.36","MAGA","3","f","rechts","24","","","self","f","90","true"
"null","<div style=""font-size:60px;"">+</div>","null","html-keyboard-response","80","72486","0.0-6.0-0.37","MAGA","3","f","rechts","24","","fixation","","","",""
"715","img/0_90.png","74","image-keyboard-response","81","73202","0.0-6.0-1.37","MAGA","3","f","rechts","24","","","self","j","0","true"
"null","<div style=""font-size:60px;"">+</div>","null","html-keyboard-response","82","73703","0.0-6.0-0.38","MAGA","3","f","rechts","24","","fixation","","","",""
"805","img/L150_180.png","70","image-keyboard-response","83","74509","0.0-6.0-1.38","MAGA","3","f","rechts","24","","","self","f","150","true"
"null","<div style=""font-size:60px;"">+</div>","null","html-keyboard-response","84","74960","0.0-6.0-0.39","MAGA","3","f","rechts","24","","fixation","","","",""
"813","img/30_120.png","74","image-keyboard-response","85","75774","0.0-6.0-1.39","MAGA","3","f","rechts","24","","","self","j","30","true"
"null","<div style=""font-size:60px;"">+</div>","null","html-keyboard-response","86","76125","0.0-6.0-0.40","MAGA","3","f","rechts","24","","fixation","","","",""
"828","img/120_270.png","74","image-keyboard-response","87","76954","0.0-6.0-1.40","MAGA","3","f","rechts","24","","","self","j","120","true"
"null","<div style=""font-size:60px;"">+</div>","null","html-keyboard-response","88","77406","0.0-6.0-0.41","MAGA","3","f","rechts","24","","fixation","","","",""
"884","img/90_30.png","74","image-keyboard-response","89","78291","0.0-6.0-1.41","MAGA","3","f","rechts","24","","","self","j","90","true"
"null","<div style=""font-size:60px;"">+</div>","null","html-keyboard-response","90","78742","0.0-6.0-0.42","MAGA","3","f","rechts","24","","fixation","","","",""
"967","img/150_300.png","74","image-keyboard-response","91","79710","0.0-6.0-1.42","MAGA","3","f","rechts","24","","","self","j","150","true"
"null","<div style=""font-size:60px;"">+</div>","null","html-keyboard-response","92","80012","0.0-6.0-0.43","MAGA","3","f","rechts","24","","fixation","","","",""
"661","img/0_210.png","70","image-keyboard-response","93","80674","0.0-6.0-1.43","MAGA","3","f","rechts","24","","","self","f","0","true"
"null","<div style=""font-size:60px;"">+</div>","null","html-keyboard-response","94","81175","0.0-6.0-0.44","MAGA","3","f","rechts","24","","fixation","","","",""
"800","img/150_120.png","70","image-keyboard-response","95","81977","0.0-6.0-1.44","MAGA","3","f","rechts","24","","","self","f","150","true"
"null","<div style=""font-size:60px;"">+</div>","null","html-keyboard-response","96","82428","0.0-6.0-0.45","MAGA","3","f","rechts","24","","fixation","","","",""
"788","img/120_90.png","70","image-keyboard-response","97","83218","0.0-6.0-1.45","MAGA","3","f","rechts","24","","","self","f","120","true"
"null","<div style=""font-size:60px;"">+</div>","null","html-keyboard-response","98","83669","0.0-6.0-0.46","MAGA","3","f","rechts","24","","fixation","","","",""
"655","img/30_180.png","74","image-keyboard-response","99","84326","0.0-6.0-1.46","MAGA","3","f","rechts","24","","","self","j","30","true"
"null","<div style=""font-size:60px;"">+</div>","null","html-keyboard-response","100","84627","0.0-6.0-0.47","MAGA","3","f","rechts","24","","fixation","","","",""
"626","img/90_150.png","70","image-keyboard-response","101","85255","0.0-6.0-1.47","MAGA","3","f","rechts","24","","","self","f","90","true"
"null","<div style=""font-size:60px;"">+</div>","null","html-keyboard-response","102","85606","0.0-6.0-0.48","MAGA","3","f","rechts","24","","fixation","","","",""
"668","img/150_270.png","74","image-keyboard-response","103","86276","0.0-6.0-1.48","MAGA","3","f","rechts","24","","","self","j","150","true"
"null","<div style=""font-size:60px;"">+</div>","null","html-keyboard-response","104","86727","0.0-6.0-0.49","MAGA","3","f","rechts","24","","fixation","","","",""
"651","img/0_270.png","70","image-keyboard-response","105","87379","0.0-6.0-1.49","MAGA","3","f","rechts","24","","","self","f","0","true"
"null","<div style=""font-size:60px;"">+</div>","null","html-keyboard-response","106","87781","0.0-6.0-0.50","MAGA","3","f","rechts","24","","fixation","","","",""
"859","img/150_90.png","70","image-keyboard-response","107","88641","0.0-6.0-1.50","MAGA","3","f","rechts","24","","","self","f","150","true"
"null","<div style=""font-size:60px;"">+</div>","null","html-keyboard-response","108","89042","0.0-6.0-0.51","MAGA","3","f","rechts","24","","fixation","","","",""
"785","img/90_300.png","70","image-keyboard-response","109","89828","0.0-6.0-1.51","MAGA","3","f","rechts","24","","","self","f","90","true"
"null","<div style=""font-size:60px;"">+</div>","null","html-keyboard-response","110","90180","0.0-6.0-0.52","MAGA","3","f","rechts","24","","fixation","","","",""
"699","img/0_120.png","74","image-keyboard-response","111","90880","0.0-6.0-1.52","MAGA","3","f","rechts","24","","","self","j","0","true"
"null","<div style=""font-size:60px;"">+</div>","null","html-keyboard-response","112","91182","0.0-6.0-0.53","MAGA","3","f","rechts","24","","fixation","","","",""
"734","img/120_180.png","74","image-keyboard-response","113","91917","0.0-6.0-1.53","MAGA","3","f","rechts","24","","","self","j","120","true"
"null","<div style=""font-size:60px;"">+</div>","null","html-keyboard-response","114","92218","0.0-6.0-0.54","MAGA","3","f","rechts","24","","fixation","","","",""
"720","img/0_300.png","70","image-keyboard-response","115","92939","0.0-6.0-1.54","MAGA","3","f","rechts","24","","","self","f","0","true"
"null","<div style=""font-size:60px;"">+</div>","null","html-keyboard-response","116","93340","0.0-6.0-0.55","MAGA","3","f","rechts","24","","fixation","","","",""
"623","img/120_150.png","70","image-keyboard-response","117","93964","0.0-6.0-1.55","MAGA","3","f","rechts","24","","","self","f","120","true"
"null","<div style=""font-size:60px;"">+</div>","null","html-keyboard-response","118","94265","0.0-6.0-0.56","MAGA","3","f","rechts","24","","fixation","","","",""
"657","img/0_30.png","74","image-keyboard-response","119","94923","0.0-6.0-1.56","MAGA","3","f","rechts","24","","","self","j","0","true"
"null","<div style=""font-size:60px;"">+</div>","null","html-keyboard-response","120","95225","0.0-6.0-0.57","MAGA","3","f","rechts","24","","fixation","","","",""
"670","img/60_330.png","70","image-keyboard-response","121","95895","0.0-6.0-1.57","MAGA","3","f","rechts","24","","","self","f","60","true"
"null","<div style=""font-size:60px;"">+</div>","null","html-keyboard-response","122","96347","0.0-6.0-0.58","MAGA","3","f","rechts","24","","fixation","","","",""
"717","img/60_210.png","74","image-keyboard-response","123","97064","0.0-6.0-1.58","MAGA","3","f","rechts","24","","","self","j","60","true"
"null","<div style=""font-size:60px;"">+</div>","null","html-keyboard-response","124","97466","0.0-6.0-0.59","MAGA","3","f","rechts","24","","fixation","","","",""
"647","img/90_300.png","70","image-keyboard-response","125","98114","0.0-6.0-1.59","MAGA","3","f","rechts","24","","","self","f","90","true"
"null","<div style=""font-size:60px;"">+</div>","null","html-keyboard-response","126","98566","0.0-6.0-0.60","MAGA","3","f","rechts","24","","fixation","","","",""
"609","img/60_180.png","74","image-keyboard-response","127","99175","0.0-6.0-1.60","MAGA","3","f","rechts","24","","","self","j","60","true"
"null","<div style=""font-size:60px;"">+</div>","null","html-keyboard-response","128","99677","0.0-6.0-0.61","MAGA","3","f","rechts","24","","fixation","","","",""
"506","img/90_180.png","74","image-keyboard-response","129","100183","0.0-6.0-1.61","MAGA","3","f","rechts","24","","","self","j","90","true"
"null","<div style=""font-size:60px;"">+</div>","null","html-keyboard-response","130","100635","0.0-6.0-0.62","MAGA","3","f","rechts","24","","fixation","","","",""
"692","img/30_180.png","74","image-keyboard-response","131","101327","0.0-6.0-1.62","MAGA","3","f","rechts","24","","","self","j","30","true"
"null","<div style=""font-size:60px;"">+</div>","null","html-keyboard-response","132","101779","0.0-6.0-0.63","MAGA","3","f","rechts","24","","fixation","","","",""
"569","img/0_60.png","74","image-keyboard-response","133","102349","0.0-6.0-1.63","MAGA","3","f","rechts","24","","","self","j","0","true"
"null","<div style=""font-size:60px;"">+</div>","null","html-keyboard-response","134","102751","0.0-6.0-0.64","MAGA","3","f","rechts","24","","fixation","","","",""
"674","img/150_180.png","74","image-keyboard-response","135","103425","0.0-6.0-1.64","MAGA","3","f","rechts","24","","","self","j","150","true"
"null","<div style=""font-size:60px;"">+</div>","null","html-keyboard-response","136","103877","0.0-6.0-0.65","MAGA","3","f","rechts","24","","fixation","","","",""
"626","img/90_210.png","74","image-keyboard-response","137","104504","0.0-6.0-1.65","MAGA","3","f","rechts","24","","","self","j","90","true"
"null","<div style=""font-size:60px;"">+</div>","null","html-keyboard-response","138","104806","0.0-6.0-0.66","MAGA","3","f","rechts","24","","fixation","","","",""
"791","img/90_120.png","70","image-keyboard-response","139","105597","0.0-6.0-1.66","MAGA","3","f","rechts","24","","","self","f","90","true"
"null","<div style=""font-size:60px;"">+</div>","null","html-keyboard-response","140","105899","0.0-6.0-0.67","MAGA","3","f","rechts","24","","fixation","","","",""
"678","img/0_150.png","74","image-keyboard-response","141","106577","0.0-6.0-1.67","MAGA","3","f","rechts","24","","","self","j","0","true"
"null","<div style=""font-size:60px;"">+</div>","null","html-keyboard-response","142","106878","0.0-6.0-0.68","MAGA","3","f","rechts","24","","fixation","","","",""
"670","img/30_90.png","74","image-keyboard-response","143","107549","0.0-6.0-1.68","MAGA","3","f","rechts","24","","","self","j","30","true"
"null","<div style=""font-size:60px;"">+</div>","null","html-keyboard-response","144","108051","0.0-6.0-0.69","MAGA","3","f","rechts","24","","fixation","","","",""
"602","img/30_300.png","70","image-keyboard-response","145","108653","0.0-6.0-1.69","MAGA","3","f","rechts","24","","","self","f","30","true"
"null","<div style=""font-size:60px;"">+</div>","null","html-keyboard-response","146","109155","0.0-6.0-0.70","MAGA","3","f","rechts","24","","fixation","","","",""
"859","img/60_90.png","74","image-keyboard-response","147","110014","0.0-6.0-1.70","MAGA","3","f","rechts","24","","","self","j","60","true"
"null","<div style=""font-size:60px;"">+</div>","null","html-keyboard-response","148","110366","0.0-6.0-0.71","MAGA","3","f","rechts","24","","fixation","","","",""
"689","img/150_120.png","70","image-keyboard-response","149","111055","0.0-6.0-1.71","MAGA","3","f","rechts","24","","","self","f","150","true"
"null","<div style=""font-size:60px;"">+</div>","null","html-keyboard-response","150","111557","0.0-6.0-0.72","MAGA","3","f","rechts","24","","fixation","","","",""
"660","img/60_30.png","74","image-keyboard-response","151","112217","0.0-6.0-1.72","MAGA","3","f","rechts","24","","","self","j","60","true"
"null","<div style=""font-size:60px;"">+</div>","null","html-keyboard-response","152","112669","0.0-6.0-0.73","MAGA","3","f","rechts","24","","fixation","","","",""
"810","img/90_60.png","74","image-keyboard-response","153","113479","0.0-6.0-1.73","MAGA","3","f","rechts","24","","","self","j","90","true"
"null","<div style=""font-size:60px;"">+</div>","null","html-keyboard-response","154","113831","0.0-6.0-0.74","MAGA","3","f","rechts","24","","fixation","","","",""
"703","img/150_270.png","74","image-keyboard-response","155","114534","0.0-6.0-1.74","MAGA","3","f","rechts","24","","","self","j","150","true"
"null","<div style=""font-size:60px;"">+</div>","null","html-keyboard-response","156","114935","0.0-6.0-0.75","MAGA","3","f","rechts","24","","fixation","","","",""
"764","img/90_330.png","70","image-keyboard-response","157","115700","0.0-6.0-1.75","MAGA","3","f","rechts","24","","","self","f","90","true"
"null","<div style=""font-size:60px;"">+</div>","null","html-keyboard-response","158","116001","0.0-6.0-0.76","MAGA","3","f","rechts","24","","fixation","","","",""
"836","img/150_60.png","70","image-keyboard-response","159","116838","0.0-6.0-1.76","MAGA","3","f","rechts","24","","","self","f","150","true"
"null","<div style=""font-size:60px;"">+</div>","null","html-keyboard-response","160","117190","0.0-6.0-0.77","MAGA","3","f","rechts","24","","fixation","","","",""
"822","img/90_30.png","74","image-keyboard-response","161","118012","0.0-6.0-1.77","MAGA","3","f","rechts","24","","","self","j","90","true"
"null","<div style=""font-size:60px;"">+</div>","null","html-keyboard-response","162","118413","0.0-6.0-0.78","MAGA","3","f","rechts","24","","fixation","","","",""
"805","img/120_30.png","74","image-keyboard-response","163","119218","0.0-6.0-1.78","MAGA","3","f","rechts","24","","","self","j","120","true"
"null","<div style=""font-size:60px;"">+</div>","null","html-keyboard-response","164","119620","0.0-6.0-0.79","MAGA","3","f","rechts","24","","fixation","","","",""
"912","img/30_120.png","74","image-keyboard-response","165","120532","0.0-6.0-1.79","MAGA","3","f","rechts","24","","","self","j","30","true"
"null","<div style=""font-size:60px;"">+</div>","null","html-keyboard-response","166","120934","0.0-6.0-0.80","MAGA","3","f","rechts","24","","fixation","","","",""
"768","img/0_270.png","70","image-keyboard-response","167","121703","0.0-6.0-1.80","MAGA","3","f","rechts","24","","","self","f","0","true"
"null","<div style=""font-size:60px;"">+</div>","null","html-keyboard-response","168","122204","0.0-6.0-0.81","MAGA","3","f","rechts","24","","fixation","","","",""
"808","img/90_240.png","74","image-keyboard-response","169","123013","0.0-6.0-1.81","MAGA","3","f","rechts","24","","","self","j","90","true"
"null","<div style=""font-size:60px;"">+</div>","null","html-keyboard-response","170","123515","0.0-6.0-0.82","MAGA","3","f","rechts","24","","fixation","","","",""
"675","img/150_90.png","70","image-keyboard-response","171","124190","0.0-6.0-1.82","MAGA","3","f","rechts","24","","","self","f","150","true"
"null","<div style=""font-size:60px;"">+</div>","null","html-keyboard-response","172","124692","0.0-6.0-0.83","MAGA","3","f","rechts","24","","fixation","","","",""
"697","img/90_150.png","70","image-keyboard-response","173","125389","0.0-6.0-1.83","MAGA","3","f","rechts","24","","","self","f","90","true"
"null","<div style=""font-size:60px;"">+</div>","null","html-keyboard-response","174","125791","0.0-6.0-0.84","MAGA","3","f","rechts","24","","fixation","","","",""
"628","img/L90_180.png","70","image-keyboard-response","175","126419","0.0-6.0-1.84","MAGA","3","f","rechts","24","","","self","f","90","true"
"null","<div style=""font-size:60px;"">+</div>","null","html-keyboard-response","176","126720","0.0-6.0-0.85","MAGA","3","f","rechts","24","","fixation","","","",""
"633","img/0_90.png","74","image-keyboard-response","177","127355","0.0-6.0-1.85","MAGA","3","f","rechts","24","","","self","j","0","true"
"null","<div style=""font-size:60px;"">+</div>","null","html-keyboard-response","178","127656","0.0-6.0-0.86","MAGA","3","f","rechts","24","","fixation","","","",""
"703","img/150_240.png","74","image-keyboard-response","179","128361","0.0-6.0-1.86","MAGA","3","f","rechts","24","","","self","j","150","true"
"null","<div style=""font-size:60px;"">+</div>","null","html-keyboard-response","180","128662","0.0-6.0-0.87","MAGA","3","f","rechts","24","","fixation","","","",""
"647","img/30_60.png","74","image-keyboard-response","181","129310","0.0-6.0-1.87","MAGA","3","f","rechts","24","","","self","j","30","true"
"null","<div style=""font-size:60px;"">+</div>","null","html-keyboard-response","182","129711","0.0-6.0-0.88","MAGA","3","f","rechts","24","","fixation","","","",""
"571","img/0_330.png","70","image-keyboard-response","183","130284","0.0-6.0-1.88","MAGA","3","f","rechts","24","","","self","f","0","true"
"null","<div style=""font-size:60px;"">+</div>","null","html-keyboard-response","184","130636","0.0-6.0-0.89","MAGA","3","f","rechts","24","","fixation","","","",""
"659","img/120_330.png","70","image-keyboard-response","185","131295","0.0-6.0-1.89","MAGA","3","f","rechts","24","","","self","f","120","true"
"null","<div style=""font-size:60px;"">+</div>","null","html-keyboard-response","186","131597","0.0-6.0-0.90","MAGA","3","f","rechts","24","","fixation","","","",""
"779","img/L30_180.png","70","image-keyboard-response","187","132377","0.0-6.0-1.90","MAGA","3","f","rechts","24","","","self","f","30","true"
"null","<div style=""font-size:60px;"">+</div>","null","html-keyboard-response","188","132679","0.0-6.0-0.91","MAGA","3","f","rechts","24","","fixation","","","",""
"679","img/30_270.png","70","image-keyboard-response","189","133359","0.0-6.0-1.91","MAGA","3","f","rechts","24","","","self","f","30","true"
"null","<div style=""font-size:60px;"">+</div>","null","html-keyboard-response","190","133860","0.0-6.0-0.92","MAGA","3","f","rechts","24","","fixation","","","",""
"678","img/60_270.png","70","image-keyboard-response","191","134539","0.0-6.0-1.92","MAGA","3","f","rechts","24","","","self","f","60","true"
"null","<div style=""font-size:60px;"">+</div>","null","html-keyboard-response","192","134941","0.0-6.0-0.93","MAGA","3","f","rechts","24","","fixation","","","",""
"592","img/L120_180.png","70","image-keyboard-response","193","135535","0.0-6.0-1.93","MAGA","3","f","rechts","24","","","self","f","120","true"
"null","<div style=""font-size:60px;"">+</div>","null","html-keyboard-response","194","135836","0.0-6.0-0.94","MAGA","3","f","rechts","24","","fixation","","","",""
"631","img/L60_180.png","70","image-keyboard-response","195","136468","0.0-6.0-1.94","MAGA","3","f","rechts","24","","","self","f","60","true"
"null","<div style=""font-size:60px;"">+</div>","null","html-keyboard-response","196","136870","0.0-6.0-0.95","MAGA","3","f","rechts","24","","fixation","","","",""
"762","img/120_90.png","70","image-keyboard-response","197","137633","0.0-6.0-1.95","MAGA","3","f","rechts","24","","","self","f","120","true"
"null","<div style=""font-size:60px;"">+</div>","null","html-keyboard-response","198","138135","0.0-6.0-0.96","MAGA","3","f","rechts","24","","fixation","","","",""
"589","img/30_240.png","70","image-keyboard-response","199","138725","0.0-6.0-1.96","MAGA","3","f","rechts","24","","","self","f","30","true"
"null","<div style=""font-size:60px;"">+</div>","null","html-keyboard-response","200","139177","0.0-6.0-0.97","MAGA","3","f","rechts","24","","fixation","","","",""
"577","img/0_240.png","70","image-keyboard-response","201","139755","0.0-6.0-1.97","MAGA","3","f","rechts","24","","","self","f","0","true"
"null","<div style=""font-size:60px;"">+</div>","null","html-keyboard-response","202","140057","0.0-6.0-0.98","MAGA","3","f","rechts","24","","fixation","","","",""
"721","img/120_210.png","74","image-keyboard-response","203","140779","0.0-6.0-1.98","MAGA","3","f","rechts","24","","","self","j","120","true"
"null","<div style=""font-size:60px;"">+</div>","null","html-keyboard-response","204","141181","0.0-6.0-0.99","MAGA","3","f","rechts","24","","fixation","","","",""
"598","img/L150_180.png","70","image-keyboard-response","205","141780","0.0-6.0-1.99","MAGA","3","f","rechts","24","","","self","f","150","true"
"null","<div style=""font-size:60px;"">+</div>","null","html-keyboard-response","206","142232","0.0-6.0-0.100","MAGA","3","f","rechts","24","","fixation","","","",""
"674","img/120_270.png","74","image-keyboard-response","207","142907","0.0-6.0-1.100","MAGA","3","f","rechts","24","","","self","j","120","true"
"null","<div style=""font-size:60px;"">+</div>","null","html-keyboard-response","208","143409","0.0-6.0-0.101","MAGA","3","f","rechts","24","","fixation","","","",""
"603","img/0_210.png","70","image-keyboard-response","209","144013","0.0-6.0-1.101","MAGA","3","f","rechts","24","","","self","f","0","true"
"null","<div style=""font-size:60px;"">+</div>","null","html-keyboard-response","210","144415","0.0-6.0-0.102","MAGA","3","f","rechts","24","","fixation","","","",""
"692","img/60_150.png","70","image-keyboard-response","211","145108","0.0-6.0-1.102","MAGA","3","f","rechts","24","","","self","f","60","true"
"null","<div style=""font-size:60px;"">+</div>","null","html-keyboard-response","212","145460","0.0-6.0-0.103","MAGA","3","f","rechts","24","","fixation","","","",""
"683","img/150_300.png","74","image-keyboard-response","213","146144","0.0-6.0-1.103","MAGA","3","f","rechts","24","","","self","j","150","true"
"null","<div style=""font-size:60px;"">+</div>","null","html-keyboard-response","214","146496","0.0-6.0-0.104","MAGA","3","f","rechts","24","","fixation","","","",""
"616","img/L30_180.png","70","image-keyboard-response","215","147113","0.0-6.0-1.104","MAGA","3","f","rechts","24","","","self","f","30","true"
"null","<div style=""font-size:60px;"">+</div>","null","html-keyboard-response","216","147515","0.0-6.0-0.105","MAGA","3","f","rechts","24","","fixation","","","",""
"678","img/30_90.png","74","image-keyboard-response","217","148194","0.0-6.0-1.105","MAGA","3","f","rechts","24","","","self","j","30","true"
"null","<div style=""font-size:60px;"">+</div>","null","html-keyboard-response","218","148696","0.0-6.0-0.106","MAGA","3","f","rechts","24","","fixation","","","",""
"815","img/90_60.png","74","image-keyboard-response","219","149512","0.0-6.0-1.106","MAGA","3","f","rechts","24","","","self","j","90","true"
"null","<div style=""font-size:60px;"">+</div>","null","html-keyboard-response","220","149864","0.0-6.0-0.107","MAGA","3","f","rechts","24","","fixation","","","",""
"796","img/150_300.png","74","image-keyboard-response","221","150660","0.0-6.0-1.107","MAGA","3","f","rechts","24","","","self","j","150","true"
"null","<div style=""font-size:60px;"">+</div>","null","html-keyboard-response","222","151062","0.0-6.0-0.108","MAGA","3","f","rechts","24","","fixation","","","",""
"628","img/0_270.png","70","image-keyboard-response","223","151690","0.0-6.0-1.108","MAGA","3","f","rechts","24","","","self","f","0","true"
"null","<div style=""font-size:60px;"">+</div>","null","html-keyboard-response","224","152042","0.0-6.0-0.109","MAGA","3","f","rechts","24","","fixation","","","",""
"896","img/120_330.png","70","image-keyboard-response","225","152939","0.0-6.0-1.109","MAGA","3","f","rechts","24","","","self","f","120","true"
"null","<div style=""font-size:60px;"">+</div>","null","html-keyboard-response","226","153441","0.0-6.0-0.110","MAGA","3","f","rechts","24","","fixation","","","",""
"706","img/90_150.png","70","image-keyboard-response","227","154147","0.0-6.0-1.110","MAGA","3","f","rechts","24","","","self","f","90","true"
"null","<div style=""font-size:60px;"">+</div>","null","html-keyboard-response","228","154599","0.0-6.0-0.111","MAGA","3","f","rechts","24","","fixation","","","",""
"637","img/30_60.png","74","image-keyboard-response","229","155237","0.0-6.0-1.111","MAGA","3","f","rechts","24","","","self","j","30","true"
"null","<div style=""font-size:60px;"">+</div>","null","html-keyboard-response","230","155739","0.0-6.0-0.112","MAGA","3","f","rechts","24","","fixation","","","",""
"630","img/60_90.png","74","image-keyboard-response","231","156369","0.0-6.0-1.112","MAGA","3","f","rechts","24","","","self","j","60","true"
"null","<div style=""font-size:60px;"">+</div>","null","html-keyboard-response","232","156671","0.0-6.0-0.113","MAGA","3","f","rechts","24","","fixation","","","",""
"707","img/0_120.png","74","image-keyboard-response","233","157378","0.0-6.0-1.113","MAGA","3","f","rechts","24","","","self","j","0","true"
"null","<div style=""font-size:60px;"">+</div>","null","html-keyboard-response","234","157830","0.0-6.0-0.114","MAGA","3","f","rechts","24","","fixation","","","",""
"669","img/60_210.png","74","image-keyboard-response","235","158499","0.0-6.0-1.114","MAGA","3","f","rechts","24","","","self","j","60","true"
"null","<div style=""font-size:60px;"">+</div>","null","html-keyboard-response","236","158851","0.0-6.0-0.115","MAGA","3","f","rechts","24","","fixation","","","",""
"663","img/90_210.png","74","image-keyboard-response","237","159514","0.0-6.0-1.115","MAGA","3","f","rechts","24","","","self","j","90","true"
"null","<div style=""font-size:60px;"">+</div>","null","html-keyboard-response","238","159816","0.0-6.0-0.116","MAGA","3","f","rechts","24","","fixation","","","",""
"745","img/60_150.png","70","image-keyboard-response","239","160561","0.0-6.0-1.116","MAGA","3","f","rechts","24","","","self","f","60","true"
"null","<div style=""font-size:60px;"">+</div>","null","html-keyboard-response","240","161063","0.0-6.0-0.117","MAGA","3","f","rechts","24","","fixation","","","",""
"559","img/0_60.png","74","image-keyboard-response","241","161622","0.0-6.0-1.117","MAGA","3","f","rechts","24","","","self","j","0","true"
"null","<div style=""font-size:60px;"">+</div>","null","html-keyboard-response","242","161974","0.0-6.0-0.118","MAGA","3","f","rechts","24","","fixation","","","",""
"605","img/90_180.png","74","image-keyboard-response","243","162579","0.0-6.0-1.118","MAGA","3","f","rechts","24","","","self","j","90","true"
"null","<div style=""font-size:60px;"">+</div>","null","html-keyboard-response","244","163031","0.0-6.0-0.119","MAGA","3","f","rechts","24","","fixation","","","",""
"764","img/30_120.png","74","image-keyboard-response","245","163795","0.0-6.0-1.119","MAGA","3","f","rechts","24","","","self","j","30","true"
"null","<div style=""font-size:60px;"">+</div>","null","html-keyboard-response","246","164247","0.0-6.0-0.120","MAGA","3","f","rechts","24","","fixation","","","",""
"709","img/90_120.png","70","image-keyboard-response","247","164956","0.0-6.0-1.120","MAGA","3","f","rechts","24","","","self","f","90","true"
"null","<div style=""font-size:60px;"">+</div>","null","html-keyboard-response","248","165358","0.0-6.0-0.121","MAGA","3","f","rechts","24","","fixation","","","",""
"730","img/150_270.png","74","image-keyboard-response","249","166088","0.0-6.0-1.121","MAGA","3","f","rechts","24","","","self","j","150","true"
"null","<div style=""font-size:60px;"">+</div>","null","html-keyboard-response","250","166490","0.0-6.0-0.122","MAGA","3","f","rechts","24","","fixation","","","",""
"627","img/90_240.png","74","image-keyboard-response","251","167118","0.0-6.0-1.122","MAGA","3","f","rechts","24","","","self","j","90","true"
"null","<div style=""font-size:60px;"">+</div>","null","html-keyboard-response","252","167520","0.0-6.0-0.123","MAGA","3","f","rechts","24","","fixation","","","",""
"565","img/150_180.png","74","image-keyboard-response","253","168085","0.0-6.0-1.123","MAGA","3","f","rechts","24","","","self","j","150","true"
"null","<div style=""font-size:60px;"">+</div>","null","html-keyboard-response","254","168436","0.0-6.0-0.124","MAGA","3","f","rechts","24","","fixation","","","",""
"633","img/L90_180.png","70","image-keyboard-response","255","169070","0.0-6.0-1.124","MAGA","3","f","rechts","24","","","self","f","90","true"
"null","<div style=""font-size:60px;"">+</div>","null","html-keyboard-response","256","169571","0.0-6.0-0.125","MAGA","3","f","rechts","24","","fixation","","","",""
"530","img/L60_180.png","70","image-keyboard-response","257","170101","0.0-6.0-1.125","MAGA","3","f","rechts","24","","","self","f","60","true"
"null","<div style=""font-size:60px;"">+</div>","null","html-keyboard-response","258","170603","0.0-6.0-0.126","MAGA","3","f","rechts","24","","fixation","","","",""
"564","img/120_270.png","74","image-keyboard-response","259","171167","0.0-6.0-1.126","MAGA","3","f","rechts","24","","","self","j","120","true"
"null","<div style=""font-size:60px;"">+</div>","null","html-keyboard-response","260","171669","0.0-6.0-0.127","MAGA","3","f","rechts","24","","fixation","","","",""
"581","img/150_90.png","70","image-keyboard-response","261","172251","0.0-6.0-1.127","MAGA","3","f","rechts","24","","","self","f","150","true"
"null","<div style=""font-size:60px;"">+</div>","null","html-keyboard-response","262","172652","0.0-6.0-0.128","MAGA","3","f","rechts","24","","fixation","","","",""
"609","img/150_240.png","74","image-keyboard-response","263","173262","0.0-6.0-1.128","MAGA","3","f","rechts","24","","","self","j","150","true"
"null","<div style=""font-size:60px;"">+</div>","null","html-keyboard-response","264","173713","0.0-6.0-0.129","MAGA","3","f","rechts","24","","fixation","","","",""
"552","img/120_90.png","70","image-keyboard-response","265","174266","0.0-6.0-1.129","MAGA","3","f","rechts","24","","","self","f","120","true"
"null","<div style=""font-size:60px;"">+</div>","null","html-keyboard-response","266","174618","0.0-6.0-0.130","MAGA","3","f","rechts","24","","fixation","","","",""
"771","img/30_180.png","74","image-keyboard-response","267","175389","0.0-6.0-1.130","MAGA","3","f","rechts","24","","","self","j","30","true"
"null","<div style=""font-size:60px;"">+</div>","null","html-keyboard-response","268","175691","0.0-6.0-0.131","MAGA","3","f","rechts","24","","fixation","","","",""
"679","img/0_30.png","74","image-keyboard-response","269","176370","0.0-6.0-1.131","MAGA","3","f","rechts","24","","","self","j","0","true"
"null","<div style=""font-size:60px;"">+</div>","null","html-keyboard-response","270","176871","0.0-6.0-0.132","MAGA","3","f","rechts","24","","fixation","","","",""
"618","img/0_210.png","70","image-keyboard-response","271","177490","0.0-6.0-1.132","MAGA","3","f","rechts","24","","","self","f","0","true"
"null","<div style=""font-size:60px;"">+</div>","null","html-keyboard-response","272","177992","0.0-6.0-0.133","MAGA","3","f","rechts","24","","fixation","","","",""
"731","img/60_270.png","70","image-keyboard-response","273","178723","0.0-6.0-1.133","MAGA","3","f","rechts","24","","","self","f","60","true"
"null","<div style=""font-size:60px;"">+</div>","null","html-keyboard-response","274","179124","0.0-6.0-0.134","MAGA","3","f","rechts","24","","fixation","","","",""
"643","img/0_330.png","70","image-keyboard-response","275","179768","0.0-6.0-1.134","MAGA","3","f","rechts","24","","","self","f","0","true"
"null","<div style=""font-size:60px;"">+</div>","null","html-keyboard-response","276","180269","0.0-6.0-0.135","MAGA","3","f","rechts","24","","fixation","","","",""
"707","img/60_30.png","74","image-keyboard-response","277","180978","0.0-6.0-1.135","MAGA","3","f","rechts","24","","","self","j","60","true"
"null","<div style=""font-size:60px;"">+</div>","null","html-keyboard-response","278","181279","0.0-6.0-0.136","MAGA","3","f","rechts","24","","fixation","","","",""
"745","img/90_330.png","70","image-keyboard-response","279","182026","0.0-6.0-1.136","MAGA","3","f","rechts","24","","","self","f","90","true"
"null","<div style=""font-size:60px;"">+</div>","null","html-keyboard-response","280","182377","0.0-6.0-0.137","MAGA","3","f","rechts","24","","fixation","","","",""
"711","img/0_300.png","70","image-keyboard-response","281","183090","0.0-6.0-1.137","MAGA","3","f","rechts","24","","","self","f","0","true"
"null","<div style=""font-size:60px;"">+</div>","null","html-keyboard-response","282","183492","0.0-6.0-0.138","MAGA","3","f","rechts","24","","fixation","","","",""
"672","img/30_270.png","70","image-keyboard-response","283","184165","0.0-6.0-1.138","MAGA","3","f","rechts","24","","","self","f","30","true"
"null","<div style=""font-size:60px;"">+</div>","null","html-keyboard-response","284","184616","0.0-6.0-0.139","MAGA","3","f","rechts","24","","fixation","","","",""
"619","img/30_240.png","70","image-keyboard-response","285","185237","0.0-6.0-1.139","MAGA","3","f","rechts","24","","","self","f","30","true"
"null","<div style=""font-size:60px;"">+</div>","null","html-keyboard-response","286","185738","0.0-6.0-0.140","MAGA","3","f","rechts","24","","fixation","","","",""
"655","img/90_300.png","70","image-keyboard-response","287","186395","0.0-6.0-1.140","MAGA","3","f","rechts","24","","","self","f","90","true"
"null","<div style=""font-size:60px;"">+</div>","null","html-keyboard-response","288","186896","0.0-6.0-0.141","MAGA","3","f","rechts","24","","fixation","","","",""
"841","img/150_60.png","70","image-keyboard-response","289","187738","0.0-6.0-1.141","MAGA","3","f","rechts","24","","","self","f","150","true"
"null","<div style=""font-size:60px;"">+</div>","null","html-keyboard-response","290","188240","0.0-6.0-0.142","MAGA","3","f","rechts","24","","fixation","","","",""
"605","img/0_240.png","70","image-keyboard-response","291","188847","0.0-6.0-1.142","MAGA","3","f","rechts","24","","","self","f","0","true"
"null","<div style=""font-size:60px;"">+</div>","null","html-keyboard-response","292","189248","0.0-6.0-0.143","MAGA","3","f","rechts","24","","fixation","","","",""
"722","img/120_150.png","70","image-keyboard-response","293","189971","0.0-6.0-1.143","MAGA","3","f","rechts","24","","","self","f","120","true"
"null","<div style=""font-size:60px;"">+</div>","null","html-keyboard-response","294","190373","0.0-6.0-0.144","MAGA","3","f","rechts","24","","fixation","","","",""
"768","img/60_330.png","70","image-keyboard-response","295","191143","0.0-6.0-1.144","MAGA","3","f","rechts","24","","","self","f","60","true"
"null","<div style=""font-size:60px;"">+</div>","null","html-keyboard-response","296","191644","0.0-6.0-0.145","MAGA","3","f","rechts","24","","fixation","","","",""
"630","img/L120_180.png","70","image-keyboard-response","297","192275","0.0-6.0-1.145","MAGA","3","f","rechts","24","","","self","f","120","true"
"null","<div style=""font-size:60px;"">+</div>","null","html-keyboard-response","298","192777","0.0-6.0-0.146","MAGA","3","f","rechts","24","","fixation","","","",""
"671","img/90_30.png","74","image-keyboard-response","299","193450","0.0-6.0-1.146","MAGA","3","f","rechts","24","","","self","j","90","true"
"null","<div style=""font-size:60px;"">+</div>","null","html-keyboard-response","300","193901","0.0-6.0-0.147","MAGA","3","f","rechts","24","","fixation","","","",""
"670","img/L150_180.png","70","image-keyboard-response","301","194572","0.0-6.0-1.147","MAGA","3","f","rechts","24","","","self","f","150","true"
"null","<div style=""font-size:60px;"">+</div>","null","html-keyboard-response","302","194974","0.0-6.0-0.148","MAGA","3","f","rechts","24","","fixation","","","",""
"684","img/150_120.png","70","image-keyboard-response","303","195659","0.0-6.0-1.148","MAGA","3","f","rechts","24","","","self","f","150","true"
"null","<div style=""font-size:60px;"">+</div>","null","html-keyboard-response","304","196111","0.0-6.0-0.149","MAGA","3","f","rechts","24","","fixation","","","",""
"681","img/120_30.png","74","image-keyboard-response","305","196793","0.0-6.0-1.149","MAGA","3","f","rechts","24","","","self","j","120","true"
"null","<div style=""font-size:60px;"">+</div>","null","html-keyboard-response","306","197245","0.0-6.0-0.150","MAGA","3","f","rechts","24","","fixation","","","",""
"618","img/60_180.png","74","image-keyboard-response","307","197864","0.0-6.0-1.150","MAGA","3","f","rechts","24","","","self","j","60","true"
"null","<div style=""font-size:60px;"">+</div>","null","html-keyboard-response","308","198166","0.0-6.0-0.151","MAGA","3","f","rechts","24","","fixation","","","",""
"697","img/30_300.png","70","image-keyboard-response","309","198863","0.0-6.0-1.151","MAGA","3","f","rechts","24","","","self","f","30","true"
"null","<div style=""font-size:60px;"">+</div>","null","html-keyboard-response","310","199215","0.0-6.0-0.152","MAGA","3","f","rechts","24","","fixation","","","",""
"745","img/120_210.png","74","image-keyboard-response","311","199961","0.0-6.0-1.152","MAGA","3","f","rechts","24","","","self","j","120","true"
"null","<div style=""font-size:60px;"">+</div>","null","html-keyboard-response","312","200363","0.0-6.0-0.153","MAGA","3","f","rechts","24","","fixation","","","",""
"617","img/0_150.png","74","image-keyboard-response","313","200981","0.0-6.0-1.153","MAGA","3","f","rechts","24","","","self","j","0","true"
"null","<div style=""font-size:60px;"">+</div>","null","html-keyboard-response","314","201283","0.0-6.0-0.154","MAGA","3","f","rechts","24","","fixation","","","",""
"713","img/120_180.png","74","image-keyboard-response","315","201996","0.0-6.0-1.154","MAGA","3","f","rechts","24","","","self","j","120","true"
"null","<div style=""font-size:60px;"">+</div>","null","html-keyboard-response","316","202348","0.0-6.0-0.155","MAGA","3","f","rechts","24","","fixation","","","",""
"582","img/0_90.png","74","image-keyboard-response","317","202930","0.0-6.0-1.155","MAGA","3","f","rechts","24","","","self","j","0","true"
"null","<div style=""font-size:60px;"">+</div>","null","html-keyboard-response","318","203432","0.0-6.0-0.156","MAGA","3","f","rechts","24","","fixation","","","",""
"664","img/150_300.png","74","image-keyboard-response","319","204097","0.0-6.0-1.156","MAGA","3","f","rechts","24","","","self","j","150","true"
"null","<div style=""font-size:60px;"">+</div>","null","html-keyboard-response","320","204449","0.0-6.0-0.157","MAGA","3","f","rechts","24","","fixation","","","",""
"674","img/90_240.png","74","image-keyboard-response","321","205124","0.0-6.0-1.157","MAGA","3","f","rechts","24","","","self","j","90","true"
"null","<div style=""font-size:60px;"">+</div>","null","html-keyboard-response","322","205476","0.0-6.0-0.158","MAGA","3","f","rechts","24","","fixation","","","",""
"670","img/60_150.png","70","image-keyboard-response","323","206147","0.0-6.0-1.158","MAGA","3","f","rechts","24","","","self","f","60","true"
"null","<div style=""font-size:60px;"">+</div>","null","html-keyboard-response","324","206499","0.0-6.0-0.159","MAGA","3","f","rechts","24","","fixation","","","",""
"744","img/0_30.png","74","image-keyboard-response","325","207243","0.0-6.0-1.159","MAGA","3","f","rechts","24","","","self","j","0","true"
"null","<div style=""font-size:60px;"">+</div>","null","html-keyboard-response","326","207545","0.0-6.0-0.160","MAGA","3","f","rechts","24","","fixation","","","",""
"589","img/0_120.png","74","image-keyboard-response","327","208134","0.0-6.0-1.160","MAGA","3","f","rechts","24","","","self","j","0","true"
"null","<div style=""font-size:60px;"">+</div>","null","html-keyboard-response","328","208636","0.0-6.0-0.161","MAGA","3","f","rechts","24","","fixation","","","",""
"688","img/60_90.png","74","image-keyboard-response","329","209325","0.0-6.0-1.161","MAGA","3","f","rechts","24","","","self","j","60","true"
"null","<div style=""font-size:60px;"">+</div>","null","html-keyboard-response","330","209826","0.0-6.0-0.162","MAGA","3","f","rechts","24","","fixation","","","",""
"602","img/30_270.png","70","image-keyboard-response","331","210429","0.0-6.0-1.162","MAGA","3","f","rechts","24","","","self","f","30","true"
"null","<div style=""font-size:60px;"">+</div>","null","html-keyboard-response","332","210830","0.0-6.0-0.163","MAGA","3","f","rechts","24","","fixation","","","",""
"588","img/150_180.png","74","image-keyboard-response","333","211419","0.0-6.0-1.163","MAGA","3","f","rechts","24","","","self","j","150","true"
"null","<div style=""font-size:60px;"">+</div>","null","html-keyboard-response","334","211721","0.0-6.0-0.164","MAGA","3","f","rechts","24","","fixation","","","",""
"672","img/30_180.png","74","image-keyboard-response","335","212393","0.0-6.0-1.164","MAGA","3","f","rechts","24","","","self","j","30","true"
"null","<div style=""font-size:60px;"">+</div>","null","html-keyboard-response","336","212895","0.0-6.0-0.165","MAGA","3","f","rechts","24","","fixation","","","",""
"553","img/150_120.png","70","image-keyboard-response","337","213449","0.0-6.0-1.165","MAGA","3","f","rechts","24","","","self","f","150","true"
"null","<div style=""font-size:60px;"">+</div>","null","html-keyboard-response","338","213950","0.0-6.0-0.166","MAGA","3","f","rechts","24","","fixation","","","",""
"828","img/90_60.png","74","image-keyboard-response","339","214779","0.0-6.0-1.166","MAGA","3","f","rechts","24","","","self","j","90","true"
"null","<div style=""font-size:60px;"">+</div>","null","html-keyboard-response","340","215231","0.0-6.0-0.167","MAGA","3","f","rechts","24","","fixation","","","",""
"572","img/L150_180.png","70","image-keyboard-response","341","215803","0.0-6.0-1.167","MAGA","3","f","rechts","24","","","self","f","150","true"
"null","<div style=""font-size:60px;"">+</div>","null","html-keyboard-response","342","216105","0.0-6.0-0.168","MAGA","3","f","rechts","24","","fixation","","","",""
"1242","img/120_30.png","74","image-keyboard-response","343","217348","0.0-6.0-1.168","MAGA","3","f","rechts","24","","","self","j","120","true"
"null","<div style=""font-size:60px;"">+</div>","null","html-keyboard-response","344","217650","0.0-6.0-0.169","MAGA","3","f","rechts","24","","fixation","","","",""
"656","img/30_60.png","74","image-keyboard-response","345","218306","0.0-6.0-1.169","MAGA","3","f","rechts","24","","","self","j","30","true"
"null","<div style=""font-size:60px;"">+</div>","null","html-keyboard-response","346","218657","0.0-6.0-0.170","MAGA","3","f","rechts","24","","fixation","","","",""
"847","img/120_90.png","70","image-keyboard-response","347","219505","0.0-6.0-1.170","MAGA","3","f","rechts","24","","","self","f","120","true"
"null","<div style=""font-size:60px;"">+</div>","null","html-keyboard-response","348","219957","0.0-6.0-0.171","MAGA","3","f","rechts","24","","fixation","","","",""
"749","img/150_240.png","74","image-keyboard-response","349","220706","0.0-6.0-1.171","MAGA","3","f","rechts","24","","","self","j","150","true"
"null","<div style=""font-size:60px;"">+</div>","null","html-keyboard-response","350","221008","0.0-6.0-0.172","MAGA","3","f","rechts","24","","fixation","","","",""
"670","img/120_180.png","74","image-keyboard-response","351","221678","0.0-6.0-1.172","MAGA","3","f","rechts","24","","","self","j","120","true"
"null","<div style=""font-size:60px;"">+</div>","null","html-keyboard-response","352","222130","0.0-6.0-0.173","MAGA","3","f","rechts","24","","fixation","","","",""
"774","img/60_210.png","74","image-keyboard-response","353","222904","0.0-6.0-1.173","MAGA","3","f","rechts","24","","","self","j","60","true"
"null","<div style=""font-size:60px;"">+</div>","null","html-keyboard-response","354","223406","0.0-6.0-0.174","MAGA","3","f","rechts","24","","fixation","","","",""
"660","img/0_90.png","74","image-keyboard-response","355","224066","0.0-6.0-1.174","MAGA","3","f","rechts","24","","","self","j","0","true"
"null","<div style=""font-size:60px;"">+</div>","null","html-keyboard-response","356","224367","0.0-6.0-0.175","MAGA","3","f","rechts","24","","fixation","","","",""
"977","img/60_270.png","70","image-keyboard-response","357","225346","0.0-6.0-1.175","MAGA","3","f","rechts","24","","","self","f","60","true"
"null","<div style=""font-size:60px;"">+</div>","null","html-keyboard-response","358","225847","0.0-6.0-0.176","MAGA","3","f","rechts","24","","fixation","","","",""
"583","img/150_270.png","74","image-keyboard-response","359","226431","0.0-6.0-1.176","MAGA","3","f","rechts","24","","","self","j","150","true"
"null","<div style=""font-size:60px;"">+</div>","null","html-keyboard-response","360","226783","0.0-6.0-0.177","MAGA","3","f","rechts","24","","fixation","","","",""
"745","img/90_30.png","74","image-keyboard-response","361","227529","0.0-6.0-1.177","MAGA","3","f","rechts","24","","","self","j","90","true"
"null","<div style=""font-size:60px;"">+</div>","null","html-keyboard-response","362","228030","0.0-6.0-0.178","MAGA","3","f","rechts","24","","fixation","","","",""
"690","img/150_90.png","70","image-keyboard-response","363","228722","0.0-6.0-1.178","MAGA","3","f","rechts","24","","","self","f","150","true"
"null","<div style=""font-size:60px;"">+</div>","null","html-keyboard-response","364","229073","0.0-6.0-0.179","MAGA","3","f","rechts","24","","fixation","","","",""
"644","img/120_210.png","74","image-keyboard-response","365","229719","0.0-6.0-1.179","MAGA","3","f","rechts","24","","","self","j","120","true"
"null","<div style=""font-size:60px;"">+</div>","null","html-keyboard-response","366","230170","0.0-6.0-0.180","MAGA","3","f","rechts","24","","fixation","","","",""
"620","img/0_240.png","70","image-keyboard-response","367","230792","0.0-6.0-1.180","MAGA","3","f","rechts","24","","","self","f","0","true"
"null","<div style=""font-size:60px;"">+</div>","null","html-keyboard-response","368","231093","0.0-6.0-0.181","MAGA","3","f","rechts","24","","fixation","","","",""
"638","img/30_240.png","70","image-keyboard-response","369","231732","0.0-6.0-1.181","MAGA","3","f","rechts","24","","","self","f","30","true"
"null","<div style=""font-size:60px;"">+</div>","null","html-keyboard-response","370","232134","0.0-6.0-0.182","MAGA","3","f","rechts","24","","fixation","","","",""
"556","img/30_120.png","74","image-keyboard-response","371","232692","0.0-6.0-1.182","MAGA","3","f","rechts","24","","","self","j","30","true"
"null","<div style=""font-size:60px;"">+</div>","null","html-keyboard-response","372","233143","0.0-6.0-0.183","MAGA","3","f","rechts","24","","fixation","","","",""
"572","img/60_180.png","74","image-keyboard-response","373","233716","0.0-6.0-1.183","MAGA","3","f","rechts","24","","","self","j","60","true"
"null","<div style=""font-size:60px;"">+</div>","null","html-keyboard-response","374","234168","0.0-6.0-0.184","MAGA","3","f","rechts","24","","fixation","","","",""
"543","img/0_300.png","70","image-keyboard-response","375","234713","0.0-6.0-1.184","MAGA","3","f","rechts","24","","","self","f","0","true"
"null","<div style=""font-size:60px;"">+</div>","null","html-keyboard-response","376","235014","0.0-6.0-0.185","MAGA","3","f","rechts","24","","fixation","","","",""
"663","img/90_330.png","70","image-keyboard-response","377","235679","0.0-6.0-1.185","MAGA","3","f","rechts","24","","","self","f","90","true"
"null","<div style=""font-size:60px;"">+</div>","null","html-keyboard-response","378","236180","0.0-6.0-0.186","MAGA","3","f","rechts","24","","fixation","","","",""
"806","img/L30_180.png","70","image-keyboard-response","379","236988","0.0-6.0-1.186","MAGA","3","f","rechts","24","","","self","f","30","true"
"null","<div style=""font-size:60px;"">+</div>","null","html-keyboard-response","380","237289","0.0-6.0-0.187","MAGA","3","f","rechts","24","","fixation","","","",""
"692","img/90_120.png","70","image-keyboard-response","381","237983","0.0-6.0-1.187","MAGA","3","f","rechts","24","","","self","f","90","true"
"null","<div style=""font-size:60px;"">+</div>","null","html-keyboard-response","382","238434","0.0-6.0-0.188","MAGA","3","f","rechts","24","","fixation","","","",""
"638","img/120_270.png","74","image-keyboard-response","383","239073","0.0-6.0-1.188","MAGA","3","f","rechts","24","","","self","j","120","true"
"null","<div style=""font-size:60px;"">+</div>","null","html-keyboard-response","384","239575","0.0-6.0-0.189","MAGA","3","f","rechts","24","","fixation","","","",""
"540","img/90_180.png","74","image-keyboard-response","385","240117","0.0-6.0-1.189","MAGA","3","f","rechts","24","","","self","j","90","true"
"null","<div style=""font-size:60px;"">+</div>","null","html-keyboard-response","386","240418","0.0-6.0-0.190","MAGA","3","f","rechts","24","","fixation","","","",""
"538","img/120_150.png","70","image-keyboard-response","387","240957","0.0-6.0-1.190","MAGA","3","f","rechts","24","","","self","f","120","true"
"null","<div style=""font-size:60px;"">+</div>","null","html-keyboard-response","388","241259","0.0-6.0-0.191","MAGA","3","f","rechts","24","","fixation","","","",""
"619","img/0_210.png","70","image-keyboard-response","389","241879","0.0-6.0-1.191","MAGA","3","f","rechts","24","","","self","f","0","true"
"null","<div style=""font-size:60px;"">+</div>","null","html-keyboard-response","390","242280","0.0-6.0-0.192","MAGA","3","f","rechts","24","","fixation","","","",""
"530","img/L60_180.png","70","image-keyboard-response","391","242811","0.0-6.0-1.192","MAGA","3","f","rechts","24","","","self","f","60","true"
"null","<div style=""font-size:60px;"">+</div>","null","html-keyboard-response","392","243213","0.0-6.0-0.193","MAGA","3","f","rechts","24","","fixation","","","",""
"651","img/90_300.png","70","image-keyboard-response","393","243865","0.0-6.0-1.193","MAGA","3","f","rechts","24","","","self","f","90","true"
"null","<div style=""font-size:60px;"">+</div>","null","html-keyboard-response","394","244267","0.0-6.0-0.194","MAGA","3","f","rechts","24","","fixation","","","",""
"589","img/L90_180.png","70","image-keyboard-response","395","244857","0.0-6.0-1.194","MAGA","3","f","rechts","24","","","self","f","90","true"
"null","<div style=""font-size:60px;"">+</div>","null","html-keyboard-response","396","245359","0.0-6.0-0.195","MAGA","3","f","rechts","24","","fixation","","","",""
"528","img/0_270.png","70","image-keyboard-response","397","245888","0.0-6.0-1.195","MAGA","3","f","rechts","24","","","self","f","0","true"
"null","<div style=""font-size:60px;"">+</div>","null","html-keyboard-response","398","246340","0.0-6.0-0.196","MAGA","3","f","rechts","24","","fixation","","","",""
"575","img/0_150.png","74","image-keyboard-response","399","246916","0.0-6.0-1.196","MAGA","3","f","rechts","24","","","self","j","0","true"
"null","<div style=""font-size:60px;"">+</div>","null","html-keyboard-response","400","247218","0.0-6.0-0.197","MAGA","3","f","rechts","24","","fixation","","","",""
"603","img/30_90.png","74","image-keyboard-response","401","247822","0.0-6.0-1.197","MAGA","3","f","rechts","24","","","self","j","30","true"
"null","<div style=""font-size:60px;"">+</div>","null","html-keyboard-response","402","248224","0.0-6.0-0.198","MAGA","3","f","rechts","24","","fixation","","","",""
"597","img/0_60.png","74","image-keyboard-response","403","248822","0.0-6.0-1.198","MAGA","3","f","rechts","24","","","self","j","0","true"
"null","<div style=""font-size:60px;"">+</div>","null","html-keyboard-response","404","249274","0.0-6.0-0.199","MAGA","3","f","rechts","24","","fixation","","","",""
"669","img/60_30.png","74","image-keyboard-response","405","249944","0.0-6.0-1.199","MAGA","3","f","rechts","24","","","self","j","60","true"
"null","<div style=""font-size:60px;"">+</div>","null","html-keyboard-response","406","250446","0.0-6.0-0.200","MAGA","3","f","rechts","24","","fixation","","","",""
"641","img/0_330.png","70","image-keyboard-response","407","251087","0.0-6.0-1.200","MAGA","3","f","rechts","24","","","self","f","0","true"
"null","<div style=""font-size:60px;"">+</div>","null","html-keyboard-response","408","251589","0.0-6.0-0.201","MAGA","3","f","rechts","24","","fixation","","","",""
"681","img/60_330.png","70","image-keyboard-response","409","252270","0.0-6.0-1.201","MAGA","3","f","rechts","24","","","self","f","60","true"
"null","<div style=""font-size:60px;"">+</div>","null","html-keyboard-response","410","252772","0.0-6.0-0.202","MAGA","3","f","rechts","24","","fixation","","","",""
"717","img/120_330.png","70","image-keyboard-response","411","253490","0.0-6.0-1.202","MAGA","3","f","rechts","24","","","self","f","120","true"
"null","<div style=""font-size:60px;"">+</div>","null","html-keyboard-response","412","253992","0.0-6.0-0.203","MAGA","3","f","rechts","24","","fixation","","","",""
"609","img/30_300.png","70","image-keyboard-response","413","254601","0.0-6.0-1.203","MAGA","3","f","rechts","24","","","self","f","30","true"
"null","<div style=""font-size:60px;"">+</div>","null","html-keyboard-response","414","255102","0.0-6.0-0.204","MAGA","3","f","rechts","24","","fixation","","","",""
"551","img/90_210.png","74","image-keyboard-response","415","255654","0.0-6.0-1.204","MAGA","3","f","rechts","24","","","self","j","90","true"
"null","<div style=""font-size:60px;"">+</div>","null","html-keyboard-response","416","256106","0.0-6.0-0.205","MAGA","3","f","rechts","24","","fixation","","","",""
"957","img/150_60.png","70","image-keyboard-response","417","257064","0.0-6.0-1.205","MAGA","3","f","rechts","24","","","self","f","150","true"
"null","<div style=""font-size:60px;"">+</div>","null","html-keyboard-response","418","257366","0.0-6.0-0.206","MAGA","3","f","rechts","24","","fixation","","","",""
"697","img/90_150.png","70","image-keyboard-response","419","258063","0.0-6.0-1.206","MAGA","3","f","rechts","24","","","self","f","90","true"
"null","<div style=""font-size:60px;"">+</div>","null","html-keyboard-response","420","258515","0.0-6.0-0.207","MAGA","3","f","rechts","24","","fixation","","","",""
"550","img/L120_180.png","70","image-keyboard-response","421","259065","0.0-6.0-1.207","MAGA","3","f","rechts","24","","","self","f","120","true"
"8525","<p>Du hast in 97% der Versuche korrekt entschieden.</p><p>Deine durchschnittliche Reaktionszeit war  699ms.</p><p>Dr&uuml;cke eine beliebige Taste, um die Session zu beenden. Vielen Dank!</p>","75","html-keyboard-response","422","267591","0.0-7.0","MAGA","3","f","rechts","24","","","","","",""
