"rt","stimulus","key_press","trial_type","trial_index","time_elapsed","internal_node_id","subject","session","sex","handedness","age","responses","test_part","condition","correct_response","angle","correct"
"3155","<p>Mental Rotation Experiment.</p> <p>Dr&uuml;cke eine beliebige Taste, um anzufangen.</p>","70","html-keyboard-response","0","3160","0.0-0.0","MAGA","2","f","rechts","24","","","","","",""
"2110","","","survey-text","1","5271","0.0-1.0","MAGA","2","f","rechts","24","{""Q0"":""MAGA""}","","","","",""
"1784","","","survey-text","2","7056","0.0-2.0","MAGA","2","f","rechts","24","{""Q0"":""2""}","","","","",""
"3693","","","survey-multi-choice","3","10751","0.0-3.0","MAGA","2","f","rechts","24","{""Q0"":""f"",""Q1"":""rechts""}","","","","",""
"1984","","","survey-text","4","12736","0.0-4.0","MAGA","2","f","rechts","24","{""Q0"":""24""}","","","","",""
"40026","<p> Stell dir vor, dass du vor einem runden Tisch stehst, auf dem sich ein blauer Ball am Tischrand befindet. Entlang des Tischrands ist jeweils ein verschieden langer Pfeil. Nun bewegst du dich entlang dieses Pfeils bis an seine Spitze. Wenn du am Ende des Pfeils angekommen bist, schau zur Tischmitte. </p> <img src='img/90_180.png'></img> <br> <p>Entscheide dann, ob der Ball von deiner neuen (vorgestellten) Position links oder rechts von dir liegt.</p> <p>Dr&uuml;cke die <strong>'f'</strong>-Taste f&uuml;r links, die <strong>'j'</strong>-Taste f&uuml;r rechts.</p> <br><p> Das Bild wird jeweils 1 Sekunde lang pr&auml;sentiert. Du hast 3 Sekunden Zeit eine Entscheidung zu treffen.</p>","74","html-keyboard-response","5","52765","0.0-5.0","MAGA","2","f","rechts","24","","","","","",""
"null","<div style=""font-size:60px;"">+</div>","null","html-keyboard-response","6","54268","0.0-6.0-0.0","MAGA","2","f","rechts","24","","fixation","","","",""
"704","img/L150_180.png","70","image-keyboard-response","7","54974","0.0-6.0-1.0","MAGA","2","f","rechts","24","","","self","f","150","true"
"null","<div style=""font-size:60px;"">+</div>","null","html-keyboard-response","8","55275","0.0-6.0-0.1","MAGA","2","f","rechts","24","","fixation","","","",""
"745","img/150_270.png","74","image-keyboard-response","9","56021","0.0-6.0-1.1","MAGA","2","f","rechts","24","","","self","j","150","true"
"null","<div style=""font-size:60px;"">+</div>","null","html-keyboard-response","10","56523","0.0-6.0-0.2","MAGA","2","f","rechts","24","","fixation","","","",""
"868","img/60_30.png","74","image-keyboard-response","11","57392","0.0-6.0-1.2","MAGA","2","f","rechts","24","","","self","j","60","true"
"null","<div style=""font-size:60px;"">+</div>","null","html-keyboard-response","12","57844","0.0-6.0-0.3","MAGA","2","f","rechts","24","","fixation","","","",""
"1088","img/60_150.png","70","image-keyboard-response","13","58933","0.0-6.0-1.3","MAGA","2","f","rechts","24","","","self","f","60","true"
"null","<div style=""font-size:60px;"">+</div>","null","html-keyboard-response","14","59434","0.0-6.0-0.4","MAGA","2","f","rechts","24","","fixation","","","",""
"674","img/90_210.png","74","image-keyboard-response","15","60109","0.0-6.0-1.4","MAGA","2","f","rechts","24","","","self","j","90","true"
"null","<div style=""font-size:60px;"">+</div>","null","html-keyboard-response","16","60561","0.0-6.0-0.5","MAGA","2","f","rechts","24","","fixation","","","",""
"734","img/0_330.png","70","image-keyboard-response","17","61296","0.0-6.0-1.5","MAGA","2","f","rechts","24","","","self","f","0","true"
"null","<div style=""font-size:60px;"">+</div>","null","html-keyboard-response","18","61798","0.0-6.0-0.6","MAGA","2","f","rechts","24","","fixation","","","",""
"692","img/90_240.png","74","image-keyboard-response","19","62491","0.0-6.0-1.6","MAGA","2","f","rechts","24","","","self","j","90","true"
"null","<div style=""font-size:60px;"">+</div>","null","html-keyboard-response","20","62843","0.0-6.0-0.7","MAGA","2","f","rechts","24","","fixation","","","",""
"794","img/30_180.png","74","image-keyboard-response","21","63638","0.0-6.0-1.7","MAGA","2","f","rechts","24","","","self","j","30","true"
"null","<div style=""font-size:60px;"">+</div>","null","html-keyboard-response","22","64040","0.0-6.0-0.8","MAGA","2","f","rechts","24","","fixation","","","",""
"664","img/150_300.png","74","image-keyboard-response","23","64705","0.0-6.0-1.8","MAGA","2","f","rechts","24","","","self","j","150","true"
"null","<div style=""font-size:60px;"">+</div>","null","html-keyboard-response","24","65006","0.0-6.0-0.9","MAGA","2","f","rechts","24","","fixation","","","",""
"831","img/90_30.png","74","image-keyboard-response","25","65838","0.0-6.0-1.9","MAGA","2","f","rechts","24","","","self","j","90","true"
"null","<div style=""font-size:60px;"">+</div>","null","html-keyboard-response","26","66289","0.0-6.0-0.10","MAGA","2","f","rechts","24","","fixation","","","",""
"993","img/30_270.png","70","image-keyboard-response","27","67283","0.0-6.0-1.10","MAGA","2","f","rechts","24","","","self","f","30","true"
"null","<div style=""font-size:60px;"">+</div>","null","html-keyboard-response","28","67585","0.0-6.0-0.11","MAGA","2","f","rechts","24","","fixation","","","",""
"791","img/60_330.png","70","image-keyboard-response","29","68377","0.0-6.0-1.11","MAGA","2","f","rechts","24","","","self","f","60","true"
"null","<div style=""font-size:60px;"">+</div>","null","html-keyboard-response","30","68679","0.0-6.0-0.12","MAGA","2","f","rechts","24","","fixation","","","",""
"711","img/0_240.png","70","image-keyboard-response","31","69391","0.0-6.0-1.12","MAGA","2","f","rechts","24","","","self","f","0","true"
"null","<div style=""font-size:60px;"">+</div>","null","html-keyboard-response","32","69743","0.0-6.0-0.13","MAGA","2","f","rechts","24","","fixation","","","",""
"750","img/L60_180.png","70","image-keyboard-response","33","70494","0.0-6.0-1.13","MAGA","2","f","rechts","24","","","self","f","60","true"
"null","<div style=""font-size:60px;"">+</div>","null","html-keyboard-response","34","70846","0.0-6.0-0.14","MAGA","2","f","rechts","24","","fixation","","","",""
"731","img/L30_180.png","70","image-keyboard-response","35","71578","0.0-6.0-1.14","MAGA","2","f","rechts","24","","","self","f","30","true"
"null","<div style=""font-size:60px;"">+</div>","null","html-keyboard-response","36","71930","0.0-6.0-0.15","MAGA","2","f","rechts","24","","fixation","","","",""
"728","img/30_90.png","74","image-keyboard-response","37","72659","0.0-6.0-1.15","MAGA","2","f","rechts","24","","","self","j","30","true"
"null","<div style=""font-size:60px;"">+</div>","null","html-keyboard-response","38","73161","0.0-6.0-0.16","MAGA","2","f","rechts","24","","fixation","","","",""
"687","img/30_240.png","70","image-keyboard-response","39","73849","0.0-6.0-1.16","MAGA","2","f","rechts","24","","","self","f","30","true"
"null","<div style=""font-size:60px;"">+</div>","null","html-keyboard-response","40","74301","0.0-6.0-0.17","MAGA","2","f","rechts","24","","fixation","","","",""
"680","img/30_120.png","74","image-keyboard-response","41","74982","0.0-6.0-1.17","MAGA","2","f","rechts","24","","","self","j","30","true"
"null","<div style=""font-size:60px;"">+</div>","null","html-keyboard-response","42","75283","0.0-6.0-0.18","MAGA","2","f","rechts","24","","fixation","","","",""
"747","img/150_90.png","70","image-keyboard-response","43","76031","0.0-6.0-1.18","MAGA","2","f","rechts","24","","","self","f","150","true"
"null","<div style=""font-size:60px;"">+</div>","null","html-keyboard-response","44","76333","0.0-6.0-0.19","MAGA","2","f","rechts","24","","fixation","","","",""
"604","img/90_150.png","70","image-keyboard-response","45","76939","0.0-6.0-1.19","MAGA","2","f","rechts","24","","","self","f","90","true"
"null","<div style=""font-size:60px;"">+</div>","null","html-keyboard-response","46","77290","0.0-6.0-0.20","MAGA","2","f","rechts","24","","fixation","","","",""
"697","img/30_60.png","74","image-keyboard-response","47","77988","0.0-6.0-1.20","MAGA","2","f","rechts","24","","","self","j","30","true"
"null","<div style=""font-size:60px;"">+</div>","null","html-keyboard-response","48","78290","0.0-6.0-0.21","MAGA","2","f","rechts","24","","fixation","","","",""
"630","img/60_90.png","74","image-keyboard-response","49","78922","0.0-6.0-1.21","MAGA","2","f","rechts","24","","","self","j","60","true"
"null","<div style=""font-size:60px;"">+</div>","null","html-keyboard-response","50","79223","0.0-6.0-0.22","MAGA","2","f","rechts","24","","fixation","","","",""
"707","img/0_150.png","74","image-keyboard-response","51","79932","0.0-6.0-1.22","MAGA","2","f","rechts","24","","","self","j","0","true"
"null","<div style=""font-size:60px;"">+</div>","null","html-keyboard-response","52","80383","0.0-6.0-0.23","MAGA","2","f","rechts","24","","fixation","","","",""
"823","img/120_270.png","74","image-keyboard-response","53","81207","0.0-6.0-1.23","MAGA","2","f","rechts","24","","","self","j","120","true"
"null","<div style=""font-size:60px;"">+</div>","null","html-keyboard-response","54","81707","0.0-6.0-0.24","MAGA","2","f","rechts","24","","fixation","","","",""
"682","img/150_120.png","70","image-keyboard-response","55","82392","0.0-6.0-1.24","MAGA","2","f","rechts","24","","","self","f","150","true"
"null","<div style=""font-size:60px;"">+</div>","null","html-keyboard-response","56","82793","0.0-6.0-0.25","MAGA","2","f","rechts","24","","fixation","","","",""
"692","img/120_330.png","74","image-keyboard-response","57","83487","0.0-6.0-1.25","MAGA","2","f","rechts","24","","","self","f","120","false"
"null","<div style=""font-size:60px;"">+</div>","null","html-keyboard-response","58","83888","0.0-6.0-0.26","MAGA","2","f","rechts","24","","fixation","","","",""
"632","img/0_30.png","74","image-keyboard-response","59","84523","0.0-6.0-1.26","MAGA","2","f","rechts","24","","","self","j","0","true"
"null","<div style=""font-size:60px;"">+</div>","null","html-keyboard-response","60","85024","0.0-6.0-0.27","MAGA","2","f","rechts","24","","fixation","","","",""
"654","img/120_210.png","74","image-keyboard-response","61","85680","0.0-6.0-1.27","MAGA","2","f","rechts","24","","","self","j","120","true"
"null","<div style=""font-size:60px;"">+</div>","null","html-keyboard-response","62","86031","0.0-6.0-0.28","MAGA","2","f","rechts","24","","fixation","","","",""
"583","img/0_60.png","74","image-keyboard-response","63","86615","0.0-6.0-1.28","MAGA","2","f","rechts","24","","","self","j","0","true"
"null","<div style=""font-size:60px;"">+</div>","null","html-keyboard-response","64","86917","0.0-6.0-0.29","MAGA","2","f","rechts","24","","fixation","","","",""
"774","img/150_60.png","70","image-keyboard-response","65","87693","0.0-6.0-1.29","MAGA","2","f","rechts","24","","","self","f","150","true"
"null","<div style=""font-size:60px;"">+</div>","null","html-keyboard-response","66","88094","0.0-6.0-0.30","MAGA","2","f","rechts","24","","fixation","","","",""
"818","img/90_180.png","74","image-keyboard-response","67","88914","0.0-6.0-1.30","MAGA","2","f","rechts","24","","","self","j","90","true"
"null","<div style=""font-size:60px;"">+</div>","null","html-keyboard-response","68","89415","0.0-6.0-0.31","MAGA","2","f","rechts","24","","fixation","","","",""
"575","img/60_180.png","74","image-keyboard-response","69","89992","0.0-6.0-1.31","MAGA","2","f","rechts","24","","","self","j","60","true"
"null","<div style=""font-size:60px;"">+</div>","null","html-keyboard-response","70","90343","0.0-6.0-0.32","MAGA","2","f","rechts","24","","fixation","","","",""
"617","img/0_300.png","70","image-keyboard-response","71","90961","0.0-6.0-1.32","MAGA","2","f","rechts","24","","","self","f","0","true"
"null","<div style=""font-size:60px;"">+</div>","null","html-keyboard-response","72","91463","0.0-6.0-0.33","MAGA","2","f","rechts","24","","fixation","","","",""
"623","img/150_240.png","74","image-keyboard-response","73","92088","0.0-6.0-1.33","MAGA","2","f","rechts","24","","","self","j","150","true"
"null","<div style=""font-size:60px;"">+</div>","null","html-keyboard-response","74","92539","0.0-6.0-0.34","MAGA","2","f","rechts","24","","fixation","","","",""
"704","img/30_300.png","70","image-keyboard-response","75","93244","0.0-6.0-1.34","MAGA","2","f","rechts","24","","","self","f","30","true"
"null","<div style=""font-size:60px;"">+</div>","null","html-keyboard-response","76","93546","0.0-6.0-0.35","MAGA","2","f","rechts","24","","fixation","","","",""
"783","img/90_60.png","74","image-keyboard-response","77","94331","0.0-6.0-1.35","MAGA","2","f","rechts","24","","","self","j","90","true"
"null","<div style=""font-size:60px;"">+</div>","null","html-keyboard-response","78","94732","0.0-6.0-0.36","MAGA","2","f","rechts","24","","fixation","","","",""
"718","img/120_90.png","70","image-keyboard-response","79","95453","0.0-6.0-1.36","MAGA","2","f","rechts","24","","","self","f","120","true"
"null","<div style=""font-size:60px;"">+</div>","null","html-keyboard-response","80","95904","0.0-6.0-0.37","MAGA","2","f","rechts","24","","fixation","","","",""
"1004","img/90_300.png","74","image-keyboard-response","81","96910","0.0-6.0-1.37","MAGA","2","f","rechts","24","","","self","f","90","false"
"null","<div style=""font-size:60px;"">+</div>","null","html-keyboard-response","82","97311","0.0-6.0-0.38","MAGA","2","f","rechts","24","","fixation","","","",""
"852","img/L120_180.png","70","image-keyboard-response","83","98164","0.0-6.0-1.38","MAGA","2","f","rechts","24","","","self","f","120","true"
"null","<div style=""font-size:60px;"">+</div>","null","html-keyboard-response","84","98616","0.0-6.0-0.39","MAGA","2","f","rechts","24","","fixation","","","",""
"594","img/L90_180.png","70","image-keyboard-response","85","99211","0.0-6.0-1.39","MAGA","2","f","rechts","24","","","self","f","90","true"
"null","<div style=""font-size:60px;"">+</div>","null","html-keyboard-response","86","99563","0.0-6.0-0.40","MAGA","2","f","rechts","24","","fixation","","","",""
"552","img/120_150.png","70","image-keyboard-response","87","100116","0.0-6.0-1.40","MAGA","2","f","rechts","24","","","self","f","120","true"
"null","<div style=""font-size:60px;"">+</div>","null","html-keyboard-response","88","100468","0.0-6.0-0.41","MAGA","2","f","rechts","24","","fixation","","","",""
"495","img/90_120.png","70","image-keyboard-response","89","100964","0.0-6.0-1.41","MAGA","2","f","rechts","24","","","self","f","90","true"
"null","<div style=""font-size:60px;"">+</div>","null","html-keyboard-response","90","101366","0.0-6.0-0.42","MAGA","2","f","rechts","24","","fixation","","","",""
"670","img/120_180.png","74","image-keyboard-response","91","102037","0.0-6.0-1.42","MAGA","2","f","rechts","24","","","self","j","120","true"
"null","<div style=""font-size:60px;"">+</div>","null","html-keyboard-response","92","102339","0.0-6.0-0.43","MAGA","2","f","rechts","24","","fixation","","","",""
"858","img/90_330.png","70","image-keyboard-response","93","103198","0.0-6.0-1.43","MAGA","2","f","rechts","24","","","self","f","90","true"
"null","<div style=""font-size:60px;"">+</div>","null","html-keyboard-response","94","103650","0.0-6.0-0.44","MAGA","2","f","rechts","24","","fixation","","","",""
"943","img/60_210.png","74","image-keyboard-response","95","104594","0.0-6.0-1.44","MAGA","2","f","rechts","24","","","self","j","60","true"
"null","<div style=""font-size:60px;"">+</div>","null","html-keyboard-response","96","104996","0.0-6.0-0.45","MAGA","2","f","rechts","24","","fixation","","","",""
"633","img/0_270.png","70","image-keyboard-response","97","105630","0.0-6.0-1.45","MAGA","2","f","rechts","24","","","self","f","0","true"
"null","<div style=""font-size:60px;"">+</div>","null","html-keyboard-response","98","106132","0.0-6.0-0.46","MAGA","2","f","rechts","24","","fixation","","","",""
"978","img/60_270.png","70","image-keyboard-response","99","107111","0.0-6.0-1.46","MAGA","2","f","rechts","24","","","self","f","60","true"
"null","<div style=""font-size:60px;"">+</div>","null","html-keyboard-response","100","107563","0.0-6.0-0.47","MAGA","2","f","rechts","24","","fixation","","","",""
"1219","img/120_30.png","74","image-keyboard-response","101","108783","0.0-6.0-1.47","MAGA","2","f","rechts","24","","","self","j","120","true"
"null","<div style=""font-size:60px;"">+</div>","null","html-keyboard-response","102","109284","0.0-6.0-0.48","MAGA","2","f","rechts","24","","fixation","","","",""
"715","img/150_180.png","74","image-keyboard-response","103","110000","0.0-6.0-1.48","MAGA","2","f","rechts","24","","","self","j","150","true"
"null","<div style=""font-size:60px;"">+</div>","null","html-keyboard-response","104","110351","0.0-6.0-0.49","MAGA","2","f","rechts","24","","fixation","","","",""
"916","img/0_120.png","74","image-keyboard-response","105","111269","0.0-6.0-1.49","MAGA","2","f","rechts","24","","","self","j","0","true"
"null","<div style=""font-size:60px;"">+</div>","null","html-keyboard-response","106","111621","0.0-6.0-0.50","MAGA","2","f","rechts","24","","fixation","","","",""
"655","img/0_90.png","74","image-keyboard-response","107","112277","0.0-6.0-1.50","MAGA","2","f","rechts","24","","","self","j","0","true"
"null","<div style=""font-size:60px;"">+</div>","null","html-keyboard-response","108","112679","0.0-6.0-0.51","MAGA","2","f","rechts","24","","fixation","","","",""
"660","img/0_210.png","70","image-keyboard-response","109","113340","0.0-6.0-1.51","MAGA","2","f","rechts","24","","","self","f","0","true"
"null","<div style=""font-size:60px;"">+</div>","null","html-keyboard-response","110","113792","0.0-6.0-0.52","MAGA","2","f","rechts","24","","fixation","","","",""
"727","img/90_330.png","70","image-keyboard-response","111","114520","0.0-6.0-1.52","MAGA","2","f","rechts","24","","","self","f","90","true"
"null","<div style=""font-size:60px;"">+</div>","null","html-keyboard-response","112","114922","0.0-6.0-0.53","MAGA","2","f","rechts","24","","fixation","","","",""
"657","img/0_90.png","74","image-keyboard-response","113","115579","0.0-6.0-1.53","MAGA","2","f","rechts","24","","","self","j","0","true"
"null","<div style=""font-size:60px;"">+</div>","null","html-keyboard-response","114","115931","0.0-6.0-0.54","MAGA","2","f","rechts","24","","fixation","","","",""
"919","img/150_180.png","74","image-keyboard-response","115","116850","0.0-6.0-1.54","MAGA","2","f","rechts","24","","","self","j","150","true"
"null","<div style=""font-size:60px;"">+</div>","null","html-keyboard-response","116","117152","0.0-6.0-0.55","MAGA","2","f","rechts","24","","fixation","","","",""
"946","img/90_30.png","74","image-keyboard-response","117","118098","0.0-6.0-1.55","MAGA","2","f","rechts","24","","","self","j","90","true"
"null","<div style=""font-size:60px;"">+</div>","null","html-keyboard-response","118","118550","0.0-6.0-0.56","MAGA","2","f","rechts","24","","fixation","","","",""
"641","img/60_30.png","74","image-keyboard-response","119","119191","0.0-6.0-1.56","MAGA","2","f","rechts","24","","","self","j","60","true"
"null","<div style=""font-size:60px;"">+</div>","null","html-keyboard-response","120","119543","0.0-6.0-0.57","MAGA","2","f","rechts","24","","fixation","","","",""
"724","img/30_60.png","74","image-keyboard-response","121","120267","0.0-6.0-1.57","MAGA","2","f","rechts","24","","","self","j","30","true"
"null","<div style=""font-size:60px;"">+</div>","null","html-keyboard-response","122","120719","0.0-6.0-0.58","MAGA","2","f","rechts","24","","fixation","","","",""
"912","img/0_330.png","70","image-keyboard-response","123","121631","0.0-6.0-1.58","MAGA","2","f","rechts","24","","","self","f","0","true"
"null","<div style=""font-size:60px;"">+</div>","null","html-keyboard-response","124","122033","0.0-6.0-0.59","MAGA","2","f","rechts","24","","fixation","","","",""
"715","img/150_90.png","70","image-keyboard-response","125","122748","0.0-6.0-1.59","MAGA","2","f","rechts","24","","","self","f","150","true"
"null","<div style=""font-size:60px;"">+</div>","null","html-keyboard-response","126","123100","0.0-6.0-0.60","MAGA","2","f","rechts","24","","fixation","","","",""
"752","img/60_90.png","74","image-keyboard-response","127","123852","0.0-6.0-1.60","MAGA","2","f","rechts","24","","","self","j","60","true"
"null","<div style=""font-size:60px;"">+</div>","null","html-keyboard-response","128","124253","0.0-6.0-0.61","MAGA","2","f","rechts","24","","fixation","","","",""
"662","img/30_270.png","70","image-keyboard-response","129","124916","0.0-6.0-1.61","MAGA","2","f","rechts","24","","","self","f","30","true"
"null","<div style=""font-size:60px;"">+</div>","null","html-keyboard-response","130","125318","0.0-6.0-0.62","MAGA","2","f","rechts","24","","fixation","","","",""
"610","img/60_270.png","70","image-keyboard-response","131","125929","0.0-6.0-1.62","MAGA","2","f","rechts","24","","","self","f","60","true"
"null","<div style=""font-size:60px;"">+</div>","null","html-keyboard-response","132","126231","0.0-6.0-0.63","MAGA","2","f","rechts","24","","fixation","","","",""
"666","img/0_300.png","70","image-keyboard-response","133","126897","0.0-6.0-1.63","MAGA","2","f","rechts","24","","","self","f","0","true"
"null","<div style=""font-size:60px;"">+</div>","null","html-keyboard-response","134","127299","0.0-6.0-0.64","MAGA","2","f","rechts","24","","fixation","","","",""
"720","img/150_60.png","70","image-keyboard-response","135","128019","0.0-6.0-1.64","MAGA","2","f","rechts","24","","","self","f","150","true"
"null","<div style=""font-size:60px;"">+</div>","null","html-keyboard-response","136","128321","0.0-6.0-0.65","MAGA","2","f","rechts","24","","fixation","","","",""
"841","img/L120_180.png","70","image-keyboard-response","137","129163","0.0-6.0-1.65","MAGA","2","f","rechts","24","","","self","f","120","true"
"null","<div style=""font-size:60px;"">+</div>","null","html-keyboard-response","138","129465","0.0-6.0-0.66","MAGA","2","f","rechts","24","","fixation","","","",""
"764","img/150_240.png","74","image-keyboard-response","139","130230","0.0-6.0-1.66","MAGA","2","f","rechts","24","","","self","j","150","true"
"null","<div style=""font-size:60px;"">+</div>","null","html-keyboard-response","140","130631","0.0-6.0-0.67","MAGA","2","f","rechts","24","","fixation","","","",""
"624","img/90_210.png","74","image-keyboard-response","141","131256","0.0-6.0-1.67","MAGA","2","f","rechts","24","","","self","j","90","true"
"null","<div style=""font-size:60px;"">+</div>","null","html-keyboard-response","142","131658","0.0-6.0-0.68","MAGA","2","f","rechts","24","","fixation","","","",""
"927","img/60_150.png","70","image-keyboard-response","143","132586","0.0-6.0-1.68","MAGA","2","f","rechts","24","","","self","f","60","true"
"null","<div style=""font-size:60px;"">+</div>","null","html-keyboard-response","144","132938","0.0-6.0-0.69","MAGA","2","f","rechts","24","","fixation","","","",""
"940","img/90_60.png","74","image-keyboard-response","145","133879","0.0-6.0-1.69","MAGA","2","f","rechts","24","","","self","j","90","true"
"null","<div style=""font-size:60px;"">+</div>","null","html-keyboard-response","146","134381","0.0-6.0-0.70","MAGA","2","f","rechts","24","","fixation","","","",""
"687","img/30_90.png","74","image-keyboard-response","147","135070","0.0-6.0-1.70","MAGA","2","f","rechts","24","","","self","j","30","true"
"null","<div style=""font-size:60px;"">+</div>","null","html-keyboard-response","148","135371","0.0-6.0-0.71","MAGA","2","f","rechts","24","","fixation","","","",""
"622","img/0_210.png","70","image-keyboard-response","149","135995","0.0-6.0-1.71","MAGA","2","f","rechts","24","","","self","f","0","true"
"null","<div style=""font-size:60px;"">+</div>","null","html-keyboard-response","150","136446","0.0-6.0-0.72","MAGA","2","f","rechts","24","","fixation","","","",""
"741","img/150_270.png","74","image-keyboard-response","151","137188","0.0-6.0-1.72","MAGA","2","f","rechts","24","","","self","j","150","true"
"null","<div style=""font-size:60px;"">+</div>","null","html-keyboard-response","152","137690","0.0-6.0-0.73","MAGA","2","f","rechts","24","","fixation","","","",""
"963","img/120_330.png","70","image-keyboard-response","153","138655","0.0-6.0-1.73","MAGA","2","f","rechts","24","","","self","f","120","true"
"null","<div style=""font-size:60px;"">+</div>","null","html-keyboard-response","154","139156","0.0-6.0-0.74","MAGA","2","f","rechts","24","","fixation","","","",""
"734","img/120_210.png","74","image-keyboard-response","155","139892","0.0-6.0-1.74","MAGA","2","f","rechts","24","","","self","j","120","true"
"null","<div style=""font-size:60px;"">+</div>","null","html-keyboard-response","156","140193","0.0-6.0-0.75","MAGA","2","f","rechts","24","","fixation","","","",""
"716","img/0_120.png","74","image-keyboard-response","157","140910","0.0-6.0-1.75","MAGA","2","f","rechts","24","","","self","j","0","true"
"null","<div style=""font-size:60px;"">+</div>","null","html-keyboard-response","158","141212","0.0-6.0-0.76","MAGA","2","f","rechts","24","","fixation","","","",""
"880","img/90_240.png","74","image-keyboard-response","159","142093","0.0-6.0-1.76","MAGA","2","f","rechts","24","","","self","j","90","true"
"null","<div style=""font-size:60px;"">+</div>","null","html-keyboard-response","160","142495","0.0-6.0-0.77","MAGA","2","f","rechts","24","","fixation","","","",""
"901","img/30_120.png","74","image-keyboard-response","161","143397","0.0-6.0-1.77","MAGA","2","f","rechts","24","","","self","j","30","true"
"null","<div style=""font-size:60px;"">+</div>","null","html-keyboard-response","162","143699","0.0-6.0-0.78","MAGA","2","f","rechts","24","","fixation","","","",""
"595","img/0_60.png","74","image-keyboard-response","163","144295","0.0-6.0-1.78","MAGA","2","f","rechts","24","","","self","j","0","true"
"null","<div style=""font-size:60px;"">+</div>","null","html-keyboard-response","164","144647","0.0-6.0-0.79","MAGA","2","f","rechts","24","","fixation","","","",""
"858","img/120_30.png","74","image-keyboard-response","165","145506","0.0-6.0-1.79","MAGA","2","f","rechts","24","","","self","j","120","true"
"null","<div style=""font-size:60px;"">+</div>","null","html-keyboard-response","166","145858","0.0-6.0-0.80","MAGA","2","f","rechts","24","","fixation","","","",""
"842","img/30_180.png","74","image-keyboard-response","167","146701","0.0-6.0-1.80","MAGA","2","f","rechts","24","","","self","j","30","true"
"null","<div style=""font-size:60px;"">+</div>","null","html-keyboard-response","168","147053","0.0-6.0-0.81","MAGA","2","f","rechts","24","","fixation","","","",""
"840","img/90_150.png","70","image-keyboard-response","169","147894","0.0-6.0-1.81","MAGA","2","f","rechts","24","","","self","f","90","true"
"null","<div style=""font-size:60px;"">+</div>","null","html-keyboard-response","170","148246","0.0-6.0-0.82","MAGA","2","f","rechts","24","","fixation","","","",""
"581","img/L90_180.png","70","image-keyboard-response","171","148828","0.0-6.0-1.82","MAGA","2","f","rechts","24","","","self","f","90","true"
"null","<div style=""font-size:60px;"">+</div>","null","html-keyboard-response","172","149280","0.0-6.0-0.83","MAGA","2","f","rechts","24","","fixation","","","",""
"607","img/150_120.png","70","image-keyboard-response","173","149888","0.0-6.0-1.83","MAGA","2","f","rechts","24","","","self","f","150","true"
"null","<div style=""font-size:60px;"">+</div>","null","html-keyboard-response","174","150290","0.0-6.0-0.84","MAGA","2","f","rechts","24","","fixation","","","",""
"929","img/30_240.png","70","image-keyboard-response","175","151219","0.0-6.0-1.84","MAGA","2","f","rechts","24","","","self","f","30","true"
"null","<div style=""font-size:60px;"">+</div>","null","html-keyboard-response","176","151570","0.0-6.0-0.85","MAGA","2","f","rechts","24","","fixation","","","",""
"678","img/60_180.png","74","image-keyboard-response","177","152249","0.0-6.0-1.85","MAGA","2","f","rechts","24","","","self","j","60","true"
"null","<div style=""font-size:60px;"">+</div>","null","html-keyboard-response","178","152551","0.0-6.0-0.86","MAGA","2","f","rechts","24","","fixation","","","",""
"675","img/0_150.png","74","image-keyboard-response","179","153227","0.0-6.0-1.86","MAGA","2","f","rechts","24","","","self","j","0","true"
"null","<div style=""font-size:60px;"">+</div>","null","html-keyboard-response","180","153728","0.0-6.0-0.87","MAGA","2","f","rechts","24","","fixation","","","",""
"608","img/0_240.png","70","image-keyboard-response","181","154337","0.0-6.0-1.87","MAGA","2","f","rechts","24","","","self","f","0","true"
"null","<div style=""font-size:60px;"">+</div>","null","html-keyboard-response","182","154839","0.0-6.0-0.88","MAGA","2","f","rechts","24","","fixation","","","",""
"664","img/30_300.png","70","image-keyboard-response","183","155504","0.0-6.0-1.88","MAGA","2","f","rechts","24","","","self","f","30","true"
"null","<div style=""font-size:60px;"">+</div>","null","html-keyboard-response","184","155806","0.0-6.0-0.89","MAGA","2","f","rechts","24","","fixation","","","",""
"683","img/60_330.png","70","image-keyboard-response","185","156490","0.0-6.0-1.89","MAGA","2","f","rechts","24","","","self","f","60","true"
"null","<div style=""font-size:60px;"">+</div>","null","html-keyboard-response","186","156791","0.0-6.0-0.90","MAGA","2","f","rechts","24","","fixation","","","",""
"801","img/90_300.png","70","image-keyboard-response","187","157593","0.0-6.0-1.90","MAGA","2","f","rechts","24","","","self","f","90","true"
"null","<div style=""font-size:60px;"">+</div>","null","html-keyboard-response","188","157995","0.0-6.0-0.91","MAGA","2","f","rechts","24","","fixation","","","",""
"678","img/90_180.png","74","image-keyboard-response","189","158674","0.0-6.0-1.91","MAGA","2","f","rechts","24","","","self","j","90","true"
"null","<div style=""font-size:60px;"">+</div>","null","html-keyboard-response","190","159126","0.0-6.0-0.92","MAGA","2","f","rechts","24","","fixation","","","",""
"556","img/120_180.png","74","image-keyboard-response","191","159682","0.0-6.0-1.92","MAGA","2","f","rechts","24","","","self","j","120","true"
"null","<div style=""font-size:60px;"">+</div>","null","html-keyboard-response","192","159984","0.0-6.0-0.93","MAGA","2","f","rechts","24","","fixation","","","",""
"852","img/90_120.png","70","image-keyboard-response","193","160836","0.0-6.0-1.93","MAGA","2","f","rechts","24","","","self","f","90","true"
"null","<div style=""font-size:60px;"">+</div>","null","html-keyboard-response","194","161138","0.0-6.0-0.94","MAGA","2","f","rechts","24","","fixation","","","",""
"881","img/60_210.png","74","image-keyboard-response","195","162019","0.0-6.0-1.94","MAGA","2","f","rechts","24","","","self","j","60","true"
"null","<div style=""font-size:60px;"">+</div>","null","html-keyboard-response","196","162521","0.0-6.0-0.95","MAGA","2","f","rechts","24","","fixation","","","",""
"624","img/L60_180.png","70","image-keyboard-response","197","163145","0.0-6.0-1.95","MAGA","2","f","rechts","24","","","self","f","60","true"
"null","<div style=""font-size:60px;"">+</div>","null","html-keyboard-response","198","163447","0.0-6.0-0.96","MAGA","2","f","rechts","24","","fixation","","","",""
"689","img/0_30.png","74","image-keyboard-response","199","164137","0.0-6.0-1.96","MAGA","2","f","rechts","24","","","self","j","0","true"
"null","<div style=""font-size:60px;"">+</div>","null","html-keyboard-response","200","164639","0.0-6.0-0.97","MAGA","2","f","rechts","24","","fixation","","","",""
"738","img/120_90.png","70","image-keyboard-response","201","165377","0.0-6.0-1.97","MAGA","2","f","rechts","24","","","self","f","120","true"
"null","<div style=""font-size:60px;"">+</div>","null","html-keyboard-response","202","165879","0.0-6.0-0.98","MAGA","2","f","rechts","24","","fixation","","","",""
"593","img/L30_180.png","70","image-keyboard-response","203","166472","0.0-6.0-1.98","MAGA","2","f","rechts","24","","","self","f","30","true"
"null","<div style=""font-size:60px;"">+</div>","null","html-keyboard-response","204","166824","0.0-6.0-0.99","MAGA","2","f","rechts","24","","fixation","","","",""
"761","img/L150_180.png","70","image-keyboard-response","205","167586","0.0-6.0-1.99","MAGA","2","f","rechts","24","","","self","f","150","true"
"null","<div style=""font-size:60px;"">+</div>","null","html-keyboard-response","206","167988","0.0-6.0-0.100","MAGA","2","f","rechts","24","","fixation","","","",""
"1078","img/150_300.png","74","image-keyboard-response","207","169067","0.0-6.0-1.100","MAGA","2","f","rechts","24","","","self","j","150","true"
"null","<div style=""font-size:60px;"">+</div>","null","html-keyboard-response","208","169568","0.0-6.0-0.101","MAGA","2","f","rechts","24","","fixation","","","",""
"778","img/0_270.png","70","image-keyboard-response","209","170347","0.0-6.0-1.101","MAGA","2","f","rechts","24","","","self","f","0","true"
"null","<div style=""font-size:60px;"">+</div>","null","html-keyboard-response","210","170748","0.0-6.0-0.102","MAGA","2","f","rechts","24","","fixation","","","",""
"750","img/120_270.png","74","image-keyboard-response","211","171499","0.0-6.0-1.102","MAGA","2","f","rechts","24","","","self","j","120","true"
"null","<div style=""font-size:60px;"">+</div>","null","html-keyboard-response","212","171800","0.0-6.0-0.103","MAGA","2","f","rechts","24","","fixation","","","",""
"745","img/120_150.png","70","image-keyboard-response","213","172546","0.0-6.0-1.103","MAGA","2","f","rechts","24","","","self","f","120","true"
"null","<div style=""font-size:60px;"">+</div>","null","html-keyboard-response","214","172848","0.0-6.0-0.104","MAGA","2","f","rechts","24","","fixation","","","",""
"1465","img/150_60.png","74","image-keyboard-response","215","174313","0.0-6.0-1.104","MAGA","2","f","rechts","24","","","self","f","150","false"
"null","<div style=""font-size:60px;"">+</div>","null","html-keyboard-response","216","174765","0.0-6.0-0.105","MAGA","2","f","rechts","24","","fixation","","","",""
"1072","img/30_180.png","74","image-keyboard-response","217","175837","0.0-6.0-1.105","MAGA","2","f","rechts","24","","","self","j","30","true"
"null","<div style=""font-size:60px;"">+</div>","null","html-keyboard-response","218","176288","0.0-6.0-0.106","MAGA","2","f","rechts","24","","fixation","","","",""
"581","img/150_180.png","74","image-keyboard-response","219","176870","0.0-6.0-1.106","MAGA","2","f","rechts","24","","","self","j","150","true"
"null","<div style=""font-size:60px;"">+</div>","null","html-keyboard-response","220","177321","0.0-6.0-0.107","MAGA","2","f","rechts","24","","fixation","","","",""
"778","img/60_150.png","70","image-keyboard-response","221","178100","0.0-6.0-1.107","MAGA","2","f","rechts","24","","","self","f","60","true"
"null","<div style=""font-size:60px;"">+</div>","null","html-keyboard-response","222","178401","0.0-6.0-0.108","MAGA","2","f","rechts","24","","fixation","","","",""
"771","img/0_270.png","70","image-keyboard-response","223","179174","0.0-6.0-1.108","MAGA","2","f","rechts","24","","","self","f","0","true"
"null","<div style=""font-size:60px;"">+</div>","null","html-keyboard-response","224","179475","0.0-6.0-0.109","MAGA","2","f","rechts","24","","fixation","","","",""
"739","img/90_150.png","70","image-keyboard-response","225","180215","0.0-6.0-1.109","MAGA","2","f","rechts","24","","","self","f","90","true"
"null","<div style=""font-size:60px;"">+</div>","null","html-keyboard-response","226","180516","0.0-6.0-0.110","MAGA","2","f","rechts","24","","fixation","","","",""
"971","img/30_90.png","74","image-keyboard-response","227","181488","0.0-6.0-1.110","MAGA","2","f","rechts","24","","","self","j","30","true"
"null","<div style=""font-size:60px;"">+</div>","null","html-keyboard-response","228","181990","0.0-6.0-0.111","MAGA","2","f","rechts","24","","fixation","","","",""
"863","img/90_60.png","74","image-keyboard-response","229","182854","0.0-6.0-1.111","MAGA","2","f","rechts","24","","","self","j","90","true"
"null","<div style=""font-size:60px;"">+</div>","null","html-keyboard-response","230","183355","0.0-6.0-0.112","MAGA","2","f","rechts","24","","fixation","","","",""
"940","img/120_90.png","70","image-keyboard-response","231","184296","0.0-6.0-1.112","MAGA","2","f","rechts","24","","","self","f","120","true"
"null","<div style=""font-size:60px;"">+</div>","null","html-keyboard-response","232","184648","0.0-6.0-0.113","MAGA","2","f","rechts","24","","fixation","","","",""
"982","img/90_180.png","74","image-keyboard-response","233","185631","0.0-6.0-1.113","MAGA","2","f","rechts","24","","","self","j","90","true"
"null","<div style=""font-size:60px;"">+</div>","null","html-keyboard-response","234","186132","0.0-6.0-0.114","MAGA","2","f","rechts","24","","fixation","","","",""
"663","img/90_210.png","74","image-keyboard-response","235","186796","0.0-6.0-1.114","MAGA","2","f","rechts","24","","","self","j","90","true"
"null","<div style=""font-size:60px;"">+</div>","null","html-keyboard-response","236","187148","0.0-6.0-0.115","MAGA","2","f","rechts","24","","fixation","","","",""
"685","img/0_60.png","74","image-keyboard-response","237","187835","0.0-6.0-1.115","MAGA","2","f","rechts","24","","","self","j","0","true"
"null","<div style=""font-size:60px;"">+</div>","null","html-keyboard-response","238","188236","0.0-6.0-0.116","MAGA","2","f","rechts","24","","fixation","","","",""
"836","img/90_120.png","70","image-keyboard-response","239","189074","0.0-6.0-1.116","MAGA","2","f","rechts","24","","","self","f","90","true"
"null","<div style=""font-size:60px;"">+</div>","null","html-keyboard-response","240","189375","0.0-6.0-0.117","MAGA","2","f","rechts","24","","fixation","","","",""
"1162","img/60_90.png","74","image-keyboard-response","241","190538","0.0-6.0-1.117","MAGA","2","f","rechts","24","","","self","j","60","true"
"null","<div style=""font-size:60px;"">+</div>","null","html-keyboard-response","242","190839","0.0-6.0-0.118","MAGA","2","f","rechts","24","","fixation","","","",""
"694","img/60_210.png","74","image-keyboard-response","243","191534","0.0-6.0-1.118","MAGA","2","f","rechts","24","","","self","j","60","true"
"null","<div style=""font-size:60px;"">+</div>","null","html-keyboard-response","244","191836","0.0-6.0-0.119","MAGA","2","f","rechts","24","","fixation","","","",""
"922","img/120_30.png","74","image-keyboard-response","245","192760","0.0-6.0-1.119","MAGA","2","f","rechts","24","","","self","j","120","true"
"null","<div style=""font-size:60px;"">+</div>","null","html-keyboard-response","246","193061","0.0-6.0-0.120","MAGA","2","f","rechts","24","","fixation","","","",""
"826","img/30_300.png","70","image-keyboard-response","247","193888","0.0-6.0-1.120","MAGA","2","f","rechts","24","","","self","f","30","true"
"null","<div style=""font-size:60px;"">+</div>","null","html-keyboard-response","248","194239","0.0-6.0-0.121","MAGA","2","f","rechts","24","","fixation","","","",""
"902","img/60_270.png","70","image-keyboard-response","249","195143","0.0-6.0-1.121","MAGA","2","f","rechts","24","","","self","f","60","true"
"null","<div style=""font-size:60px;"">+</div>","null","html-keyboard-response","250","195544","0.0-6.0-0.122","MAGA","2","f","rechts","24","","fixation","","","",""
"740","img/0_210.png","70","image-keyboard-response","251","196285","0.0-6.0-1.122","MAGA","2","f","rechts","24","","","self","f","0","true"
"null","<div style=""font-size:60px;"">+</div>","null","html-keyboard-response","252","196587","0.0-6.0-0.123","MAGA","2","f","rechts","24","","fixation","","","",""
"775","img/120_150.png","70","image-keyboard-response","253","197363","0.0-6.0-1.123","MAGA","2","f","rechts","24","","","self","f","120","true"
"null","<div style=""font-size:60px;"">+</div>","null","html-keyboard-response","254","197865","0.0-6.0-0.124","MAGA","2","f","rechts","24","","fixation","","","",""
"709","img/60_180.png","74","image-keyboard-response","255","198575","0.0-6.0-1.124","MAGA","2","f","rechts","24","","","self","j","60","true"
"null","<div style=""font-size:60px;"">+</div>","null","html-keyboard-response","256","198977","0.0-6.0-0.125","MAGA","2","f","rechts","24","","fixation","","","",""
"920","img/90_300.png","70","image-keyboard-response","257","199898","0.0-6.0-1.125","MAGA","2","f","rechts","24","","","self","f","90","true"
"null","<div style=""font-size:60px;"">+</div>","null","html-keyboard-response","258","200350","0.0-6.0-0.126","MAGA","2","f","rechts","24","","fixation","","","",""
"632","img/L90_180.png","70","image-keyboard-response","259","200983","0.0-6.0-1.126","MAGA","2","f","rechts","24","","","self","f","90","true"
"null","<div style=""font-size:60px;"">+</div>","null","html-keyboard-response","260","201485","0.0-6.0-0.127","MAGA","2","f","rechts","24","","fixation","","","",""
"593","img/120_180.png","74","image-keyboard-response","261","202079","0.0-6.0-1.127","MAGA","2","f","rechts","24","","","self","j","120","true"
"null","<div style=""font-size:60px;"">+</div>","null","html-keyboard-response","262","202380","0.0-6.0-0.128","MAGA","2","f","rechts","24","","fixation","","","",""
"671","img/90_240.png","74","image-keyboard-response","263","203051","0.0-6.0-1.128","MAGA","2","f","rechts","24","","","self","j","90","true"
"null","<div style=""font-size:60px;"">+</div>","null","html-keyboard-response","264","203353","0.0-6.0-0.129","MAGA","2","f","rechts","24","","fixation","","","",""
"694","img/120_270.png","74","image-keyboard-response","265","204047","0.0-6.0-1.129","MAGA","2","f","rechts","24","","","self","j","120","true"
"null","<div style=""font-size:60px;"">+</div>","null","html-keyboard-response","266","204449","0.0-6.0-0.130","MAGA","2","f","rechts","24","","fixation","","","",""
"649","img/L30_180.png","70","image-keyboard-response","267","205099","0.0-6.0-1.130","MAGA","2","f","rechts","24","","","self","f","30","true"
"null","<div style=""font-size:60px;"">+</div>","null","html-keyboard-response","268","205550","0.0-6.0-0.131","MAGA","2","f","rechts","24","","fixation","","","",""
"596","img/0_300.png","70","image-keyboard-response","269","206147","0.0-6.0-1.131","MAGA","2","f","rechts","24","","","self","f","0","true"
"null","<div style=""font-size:60px;"">+</div>","null","html-keyboard-response","270","206549","0.0-6.0-0.132","MAGA","2","f","rechts","24","","fixation","","","",""
"580","img/0_240.png","70","image-keyboard-response","271","207130","0.0-6.0-1.132","MAGA","2","f","rechts","24","","","self","f","0","true"
"null","<div style=""font-size:60px;"">+</div>","null","html-keyboard-response","272","207432","0.0-6.0-0.133","MAGA","2","f","rechts","24","","fixation","","","",""
"739","img/30_240.png","70","image-keyboard-response","273","208172","0.0-6.0-1.133","MAGA","2","f","rechts","24","","","self","f","30","true"
"null","<div style=""font-size:60px;"">+</div>","null","html-keyboard-response","274","208523","0.0-6.0-0.134","MAGA","2","f","rechts","24","","fixation","","","",""
"665","img/0_30.png","74","image-keyboard-response","275","209188","0.0-6.0-1.134","MAGA","2","f","rechts","24","","","self","j","0","true"
"null","<div style=""font-size:60px;"">+</div>","null","html-keyboard-response","276","209690","0.0-6.0-0.135","MAGA","2","f","rechts","24","","fixation","","","",""
"619","img/30_270.png","70","image-keyboard-response","277","210310","0.0-6.0-1.135","MAGA","2","f","rechts","24","","","self","f","30","true"
"null","<div style=""font-size:60px;"">+</div>","null","html-keyboard-response","278","210712","0.0-6.0-0.136","MAGA","2","f","rechts","24","","fixation","","","",""
"604","img/0_120.png","74","image-keyboard-response","279","211316","0.0-6.0-1.136","MAGA","2","f","rechts","24","","","self","j","0","true"
"null","<div style=""font-size:60px;"">+</div>","null","html-keyboard-response","280","211818","0.0-6.0-0.137","MAGA","2","f","rechts","24","","fixation","","","",""
"645","img/150_270.png","74","image-keyboard-response","281","212463","0.0-6.0-1.137","MAGA","2","f","rechts","24","","","self","j","150","true"
"null","<div style=""font-size:60px;"">+</div>","null","html-keyboard-response","282","212765","0.0-6.0-0.138","MAGA","2","f","rechts","24","","fixation","","","",""
"591","img/120_210.png","74","image-keyboard-response","283","213356","0.0-6.0-1.138","MAGA","2","f","rechts","24","","","self","j","120","true"
"null","<div style=""font-size:60px;"">+</div>","null","html-keyboard-response","284","213808","0.0-6.0-0.139","MAGA","2","f","rechts","24","","fixation","","","",""
"576","img/150_300.png","74","image-keyboard-response","285","214384","0.0-6.0-1.139","MAGA","2","f","rechts","24","","","self","j","150","true"
"null","<div style=""font-size:60px;"">+</div>","null","html-keyboard-response","286","214886","0.0-6.0-0.140","MAGA","2","f","rechts","24","","fixation","","","",""
"545","img/0_150.png","74","image-keyboard-response","287","215431","0.0-6.0-1.140","MAGA","2","f","rechts","24","","","self","j","0","true"
"null","<div style=""font-size:60px;"">+</div>","null","html-keyboard-response","288","215733","0.0-6.0-0.141","MAGA","2","f","rechts","24","","fixation","","","",""
"549","img/0_90.png","74","image-keyboard-response","289","216282","0.0-6.0-1.141","MAGA","2","f","rechts","24","","","self","j","0","true"
"null","<div style=""font-size:60px;"">+</div>","null","html-keyboard-response","290","216784","0.0-6.0-0.142","MAGA","2","f","rechts","24","","fixation","","","",""
"791","img/90_30.png","74","image-keyboard-response","291","217575","0.0-6.0-1.142","MAGA","2","f","rechts","24","","","self","j","90","true"
"null","<div style=""font-size:60px;"">+</div>","null","html-keyboard-response","292","218077","0.0-6.0-0.143","MAGA","2","f","rechts","24","","fixation","","","",""
"772","img/150_240.png","74","image-keyboard-response","293","218849","0.0-6.0-1.143","MAGA","2","f","rechts","24","","","self","j","150","true"
"null","<div style=""font-size:60px;"">+</div>","null","html-keyboard-response","294","219150","0.0-6.0-0.144","MAGA","2","f","rechts","24","","fixation","","","",""
"817","img/30_60.png","74","image-keyboard-response","295","219968","0.0-6.0-1.144","MAGA","2","f","rechts","24","","","self","j","30","true"
"null","<div style=""font-size:60px;"">+</div>","null","html-keyboard-response","296","220270","0.0-6.0-0.145","MAGA","2","f","rechts","24","","fixation","","","",""
"918","img/150_90.png","70","image-keyboard-response","297","221189","0.0-6.0-1.145","MAGA","2","f","rechts","24","","","self","f","150","true"
"null","<div style=""font-size:60px;"">+</div>","null","html-keyboard-response","298","221590","0.0-6.0-0.146","MAGA","2","f","rechts","24","","fixation","","","",""
"652","img/L120_180.png","70","image-keyboard-response","299","222244","0.0-6.0-1.146","MAGA","2","f","rechts","24","","","self","f","120","true"
"null","<div style=""font-size:60px;"">+</div>","null","html-keyboard-response","300","222645","0.0-6.0-0.147","MAGA","2","f","rechts","24","","fixation","","","",""
"678","img/L60_180.png","70","image-keyboard-response","301","223324","0.0-6.0-1.147","MAGA","2","f","rechts","24","","","self","f","60","true"
"null","<div style=""font-size:60px;"">+</div>","null","html-keyboard-response","302","223775","0.0-6.0-0.148","MAGA","2","f","rechts","24","","fixation","","","",""
"623","img/L150_180.png","70","image-keyboard-response","303","224398","0.0-6.0-1.148","MAGA","2","f","rechts","24","","","self","f","150","true"
"null","<div style=""font-size:60px;"">+</div>","null","html-keyboard-response","304","224700","0.0-6.0-0.149","MAGA","2","f","rechts","24","","fixation","","","",""
"739","img/150_120.png","70","image-keyboard-response","305","225439","0.0-6.0-1.149","MAGA","2","f","rechts","24","","","self","f","150","true"
"null","<div style=""font-size:60px;"">+</div>","null","html-keyboard-response","306","225890","0.0-6.0-0.150","MAGA","2","f","rechts","24","","fixation","","","",""
"797","img/60_330.png","70","image-keyboard-response","307","226688","0.0-6.0-1.150","MAGA","2","f","rechts","24","","","self","f","60","true"
"null","<div style=""font-size:60px;"">+</div>","null","html-keyboard-response","308","227190","0.0-6.0-0.151","MAGA","2","f","rechts","24","","fixation","","","",""
"853","img/30_120.png","74","image-keyboard-response","309","228045","0.0-6.0-1.151","MAGA","2","f","rechts","24","","","self","j","30","true"
"null","<div style=""font-size:60px;"">+</div>","null","html-keyboard-response","310","228546","0.0-6.0-0.152","MAGA","2","f","rechts","24","","fixation","","","",""
"654","img/0_330.png","70","image-keyboard-response","311","229202","0.0-6.0-1.152","MAGA","2","f","rechts","24","","","self","f","0","true"
"null","<div style=""font-size:60px;"">+</div>","null","html-keyboard-response","312","229703","0.0-6.0-0.153","MAGA","2","f","rechts","24","","fixation","","","",""
"770","img/120_330.png","70","image-keyboard-response","313","230474","0.0-6.0-1.153","MAGA","2","f","rechts","24","","","self","f","120","true"
"null","<div style=""font-size:60px;"">+</div>","null","html-keyboard-response","314","230825","0.0-6.0-0.154","MAGA","2","f","rechts","24","","fixation","","","",""
"700","img/90_330.png","70","image-keyboard-response","315","231527","0.0-6.0-1.154","MAGA","2","f","rechts","24","","","self","f","90","true"
"null","<div style=""font-size:60px;"">+</div>","null","html-keyboard-response","316","232028","0.0-6.0-0.155","MAGA","2","f","rechts","24","","fixation","","","",""
"861","img/60_30.png","74","image-keyboard-response","317","232891","0.0-6.0-1.155","MAGA","2","f","rechts","24","","","self","j","60","true"
"null","<div style=""font-size:60px;"">+</div>","null","html-keyboard-response","318","233342","0.0-6.0-0.156","MAGA","2","f","rechts","24","","fixation","","","",""
"701","img/30_270.png","70","image-keyboard-response","319","234045","0.0-6.0-1.156","MAGA","2","f","rechts","24","","","self","f","30","true"
"null","<div style=""font-size:60px;"">+</div>","null","html-keyboard-response","320","234346","0.0-6.0-0.157","MAGA","2","f","rechts","24","","fixation","","","",""
"879","img/90_180.png","74","image-keyboard-response","321","235226","0.0-6.0-1.157","MAGA","2","f","rechts","24","","","self","j","90","true"
"null","<div style=""font-size:60px;"">+</div>","null","html-keyboard-response","322","235728","0.0-6.0-0.158","MAGA","2","f","rechts","24","","fixation","","","",""
"831","img/L30_180.png","70","image-keyboard-response","323","236561","0.0-6.0-1.158","MAGA","2","f","rechts","24","","","self","f","30","true"
"null","<div style=""font-size:60px;"">+</div>","null","html-keyboard-response","324","237061","0.0-6.0-0.159","MAGA","2","f","rechts","24","","fixation","","","",""
"847","img/0_300.png","70","image-keyboard-response","325","237910","0.0-6.0-1.159","MAGA","2","f","rechts","24","","","self","f","0","true"
"null","<div style=""font-size:60px;"">+</div>","null","html-keyboard-response","326","238361","0.0-6.0-0.160","MAGA","2","f","rechts","24","","fixation","","","",""
"768","img/90_60.png","74","image-keyboard-response","327","239131","0.0-6.0-1.160","MAGA","2","f","rechts","24","","","self","j","90","true"
"null","<div style=""font-size:60px;"">+</div>","null","html-keyboard-response","328","239582","0.0-6.0-0.161","MAGA","2","f","rechts","24","","fixation","","","",""
"683","img/L90_180.png","70","image-keyboard-response","329","240266","0.0-6.0-1.161","MAGA","2","f","rechts","24","","","self","f","90","true"
"null","<div style=""font-size:60px;"">+</div>","null","html-keyboard-response","330","240568","0.0-6.0-0.162","MAGA","2","f","rechts","24","","fixation","","","",""
"1068","img/150_90.png","70","image-keyboard-response","331","241637","0.0-6.0-1.162","MAGA","2","f","rechts","24","","","self","f","150","true"
"null","<div style=""font-size:60px;"">+</div>","null","html-keyboard-response","332","242089","0.0-6.0-0.163","MAGA","2","f","rechts","24","","fixation","","","",""
"837","img/120_270.png","74","image-keyboard-response","333","242927","0.0-6.0-1.163","MAGA","2","f","rechts","24","","","self","j","120","true"
"null","<div style=""font-size:60px;"">+</div>","null","html-keyboard-response","334","243229","0.0-6.0-0.164","MAGA","2","f","rechts","24","","fixation","","","",""
"834","img/120_90.png","70","image-keyboard-response","335","244063","0.0-6.0-1.164","MAGA","2","f","rechts","24","","","self","f","120","true"
"null","<div style=""font-size:60px;"">+</div>","null","html-keyboard-response","336","244415","0.0-6.0-0.165","MAGA","2","f","rechts","24","","fixation","","","",""
"649","img/0_270.png","70","image-keyboard-response","337","245065","0.0-6.0-1.165","MAGA","2","f","rechts","24","","","self","f","0","true"
"null","<div style=""font-size:60px;"">+</div>","null","html-keyboard-response","338","245367","0.0-6.0-0.166","MAGA","2","f","rechts","24","","fixation","","","",""
"777","img/90_210.png","74","image-keyboard-response","339","246145","0.0-6.0-1.166","MAGA","2","f","rechts","24","","","self","j","90","true"
"null","<div style=""font-size:60px;"">+</div>","null","html-keyboard-response","340","246447","0.0-6.0-0.167","MAGA","2","f","rechts","24","","fixation","","","",""
"732","img/60_330.png","70","image-keyboard-response","341","247180","0.0-6.0-1.167","MAGA","2","f","rechts","24","","","self","f","60","true"
"null","<div style=""font-size:60px;"">+</div>","null","html-keyboard-response","342","247582","0.0-6.0-0.168","MAGA","2","f","rechts","24","","fixation","","","",""
"907","img/150_270.png","74","image-keyboard-response","343","248490","0.0-6.0-1.168","MAGA","2","f","rechts","24","","","self","j","150","true"
"null","<div style=""font-size:60px;"">+</div>","null","html-keyboard-response","344","248992","0.0-6.0-0.169","MAGA","2","f","rechts","24","","fixation","","","",""
"728","img/60_90.png","74","image-keyboard-response","345","249721","0.0-6.0-1.169","MAGA","2","f","rechts","24","","","self","j","60","true"
"null","<div style=""font-size:60px;"">+</div>","null","html-keyboard-response","346","250223","0.0-6.0-0.170","MAGA","2","f","rechts","24","","fixation","","","",""
"784","img/120_150.png","70","image-keyboard-response","347","251008","0.0-6.0-1.170","MAGA","2","f","rechts","24","","","self","f","120","true"
"null","<div style=""font-size:60px;"">+</div>","null","html-keyboard-response","348","251460","0.0-6.0-0.171","MAGA","2","f","rechts","24","","fixation","","","",""
"746","img/120_180.png","74","image-keyboard-response","349","252206","0.0-6.0-1.171","MAGA","2","f","rechts","24","","","self","j","120","true"
"null","<div style=""font-size:60px;"">+</div>","null","html-keyboard-response","350","252658","0.0-6.0-0.172","MAGA","2","f","rechts","24","","fixation","","","",""
"726","img/30_90.png","74","image-keyboard-response","351","253384","0.0-6.0-1.172","MAGA","2","f","rechts","24","","","self","j","30","true"
"null","<div style=""font-size:60px;"">+</div>","null","html-keyboard-response","352","253685","0.0-6.0-0.173","MAGA","2","f","rechts","24","","fixation","","","",""
"935","img/90_30.png","74","image-keyboard-response","353","254621","0.0-6.0-1.173","MAGA","2","f","rechts","24","","","self","j","90","true"
"null","<div style=""font-size:60px;"">+</div>","null","html-keyboard-response","354","254923","0.0-6.0-0.174","MAGA","2","f","rechts","24","","fixation","","","",""
"729","img/L150_180.png","70","image-keyboard-response","355","255652","0.0-6.0-1.174","MAGA","2","f","rechts","24","","","self","f","150","true"
"null","<div style=""font-size:60px;"">+</div>","null","html-keyboard-response","356","256054","0.0-6.0-0.175","MAGA","2","f","rechts","24","","fixation","","","",""
"671","img/120_210.png","74","image-keyboard-response","357","256725","0.0-6.0-1.175","MAGA","2","f","rechts","24","","","self","j","120","true"
"null","<div style=""font-size:60px;"">+</div>","null","html-keyboard-response","358","257177","0.0-6.0-0.176","MAGA","2","f","rechts","24","","fixation","","","",""
"794","img/30_120.png","74","image-keyboard-response","359","257972","0.0-6.0-1.176","MAGA","2","f","rechts","24","","","self","j","30","true"
"null","<div style=""font-size:60px;"">+</div>","null","html-keyboard-response","360","258474","0.0-6.0-0.177","MAGA","2","f","rechts","24","","fixation","","","",""
"746","img/90_300.png","70","image-keyboard-response","361","259220","0.0-6.0-1.177","MAGA","2","f","rechts","24","","","self","f","90","true"
"null","<div style=""font-size:60px;"">+</div>","null","html-keyboard-response","362","259722","0.0-6.0-0.178","MAGA","2","f","rechts","24","","fixation","","","",""
"655","img/30_300.png","70","image-keyboard-response","363","260378","0.0-6.0-1.178","MAGA","2","f","rechts","24","","","self","f","30","true"
"null","<div style=""font-size:60px;"">+</div>","null","html-keyboard-response","364","260880","0.0-6.0-0.179","MAGA","2","f","rechts","24","","fixation","","","",""
"641","img/30_240.png","70","image-keyboard-response","365","261522","0.0-6.0-1.179","MAGA","2","f","rechts","24","","","self","f","30","true"
"null","<div style=""font-size:60px;"">+</div>","null","html-keyboard-response","366","262024","0.0-6.0-0.180","MAGA","2","f","rechts","24","","fixation","","","",""
"709","img/60_210.png","74","image-keyboard-response","367","262734","0.0-6.0-1.180","MAGA","2","f","rechts","24","","","self","j","60","true"
"null","<div style=""font-size:60px;"">+</div>","null","html-keyboard-response","368","263236","0.0-6.0-0.181","MAGA","2","f","rechts","24","","fixation","","","",""
"770","img/150_240.png","74","image-keyboard-response","369","264006","0.0-6.0-1.181","MAGA","2","f","rechts","24","","","self","j","150","true"
"null","<div style=""font-size:60px;"">+</div>","null","html-keyboard-response","370","264308","0.0-6.0-0.182","MAGA","2","f","rechts","24","","fixation","","","",""
"781","img/0_150.png","74","image-keyboard-response","371","265089","0.0-6.0-1.182","MAGA","2","f","rechts","24","","","self","j","0","true"
"null","<div style=""font-size:60px;"">+</div>","null","html-keyboard-response","372","265391","0.0-6.0-0.183","MAGA","2","f","rechts","24","","fixation","","","",""
"609","img/0_90.png","74","image-keyboard-response","373","266000","0.0-6.0-1.183","MAGA","2","f","rechts","24","","","self","j","0","true"
"null","<div style=""font-size:60px;"">+</div>","null","html-keyboard-response","374","266302","0.0-6.0-0.184","MAGA","2","f","rechts","24","","fixation","","","",""
"602","img/0_60.png","74","image-keyboard-response","375","266904","0.0-6.0-1.184","MAGA","2","f","rechts","24","","","self","j","0","true"
"null","<div style=""font-size:60px;"">+</div>","null","html-keyboard-response","376","267406","0.0-6.0-0.185","MAGA","2","f","rechts","24","","fixation","","","",""
"802","img/60_270.png","70","image-keyboard-response","377","268208","0.0-6.0-1.185","MAGA","2","f","rechts","24","","","self","f","60","true"
"null","<div style=""font-size:60px;"">+</div>","null","html-keyboard-response","378","268510","0.0-6.0-0.186","MAGA","2","f","rechts","24","","fixation","","","",""
"658","img/0_240.png","70","image-keyboard-response","379","269168","0.0-6.0-1.186","MAGA","2","f","rechts","24","","","self","f","0","true"
"null","<div style=""font-size:60px;"">+</div>","null","html-keyboard-response","380","269670","0.0-6.0-0.187","MAGA","2","f","rechts","24","","fixation","","","",""
"940","img/150_300.png","74","image-keyboard-response","381","270610","0.0-6.0-1.187","MAGA","2","f","rechts","24","","","self","j","150","true"
"null","<div style=""font-size:60px;"">+</div>","null","html-keyboard-response","382","271112","0.0-6.0-0.188","MAGA","2","f","rechts","24","","fixation","","","",""
"1500","img/60_150.png","70","image-keyboard-response","383","272612","0.0-6.0-1.188","MAGA","2","f","rechts","24","","","self","f","60","true"
"null","<div style=""font-size:60px;"">+</div>","null","html-keyboard-response","384","273114","0.0-6.0-0.189","MAGA","2","f","rechts","24","","fixation","","","",""
"555","img/0_330.png","70","image-keyboard-response","385","273669","0.0-6.0-1.189","MAGA","2","f","rechts","24","","","self","f","0","true"
"null","<div style=""font-size:60px;"">+</div>","null","html-keyboard-response","386","274171","0.0-6.0-0.190","MAGA","2","f","rechts","24","","fixation","","","",""
"621","img/30_180.png","74","image-keyboard-response","387","274792","0.0-6.0-1.190","MAGA","2","f","rechts","24","","","self","j","30","true"
"null","<div style=""font-size:60px;"">+</div>","null","html-keyboard-response","388","275244","0.0-6.0-0.191","MAGA","2","f","rechts","24","","fixation","","","",""
"911","img/150_60.png","74","image-keyboard-response","389","276156","0.0-6.0-1.191","MAGA","2","f","rechts","24","","","self","f","150","false"
"null","<div style=""font-size:60px;"">+</div>","null","html-keyboard-response","390","276558","0.0-6.0-0.192","MAGA","2","f","rechts","24","","fixation","","","",""
"935","img/90_240.png","74","image-keyboard-response","391","277493","0.0-6.0-1.192","MAGA","2","f","rechts","24","","","self","j","90","true"
"null","<div style=""font-size:60px;"">+</div>","null","html-keyboard-response","392","277795","0.0-6.0-0.193","MAGA","2","f","rechts","24","","fixation","","","",""
"886","img/90_120.png","70","image-keyboard-response","393","278683","0.0-6.0-1.193","MAGA","2","f","rechts","24","","","self","f","90","true"
"null","<div style=""font-size:60px;"">+</div>","null","html-keyboard-response","394","279134","0.0-6.0-0.194","MAGA","2","f","rechts","24","","fixation","","","",""
"767","img/60_180.png","74","image-keyboard-response","395","279902","0.0-6.0-1.194","MAGA","2","f","rechts","24","","","self","j","60","true"
"null","<div style=""font-size:60px;"">+</div>","null","html-keyboard-response","396","280353","0.0-6.0-0.195","MAGA","2","f","rechts","24","","fixation","","","",""
"621","img/150_180.png","74","image-keyboard-response","397","280976","0.0-6.0-1.195","MAGA","2","f","rechts","24","","","self","j","150","true"
"null","<div style=""font-size:60px;"">+</div>","null","html-keyboard-response","398","281377","0.0-6.0-0.196","MAGA","2","f","rechts","24","","fixation","","","",""
"747","img/60_30.png","74","image-keyboard-response","399","282125","0.0-6.0-1.196","MAGA","2","f","rechts","24","","","self","j","60","true"
"null","<div style=""font-size:60px;"">+</div>","null","html-keyboard-response","400","282426","0.0-6.0-0.197","MAGA","2","f","rechts","24","","fixation","","","",""
"784","img/L60_180.png","70","image-keyboard-response","401","283212","0.0-6.0-1.197","MAGA","2","f","rechts","24","","","self","f","60","true"
"null","<div style=""font-size:60px;"">+</div>","null","html-keyboard-response","402","283713","0.0-6.0-0.198","MAGA","2","f","rechts","24","","fixation","","","",""
"629","img/0_30.png","74","image-keyboard-response","403","284344","0.0-6.0-1.198","MAGA","2","f","rechts","24","","","self","j","0","true"
"null","<div style=""font-size:60px;"">+</div>","null","html-keyboard-response","404","284795","0.0-6.0-0.199","MAGA","2","f","rechts","24","","fixation","","","",""
"678","img/150_120.png","70","image-keyboard-response","405","285474","0.0-6.0-1.199","MAGA","2","f","rechts","24","","","self","f","150","true"
"null","<div style=""font-size:60px;"">+</div>","null","html-keyboard-response","406","285776","0.0-6.0-0.200","MAGA","2","f","rechts","24","","fixation","","","",""
"1078","img/90_330.png","70","image-keyboard-response","407","286855","0.0-6.0-1.200","MAGA","2","f","rechts","24","","","self","f","90","true"
"null","<div style=""font-size:60px;"">+</div>","null","html-keyboard-response","408","287257","0.0-6.0-0.201","MAGA","2","f","rechts","24","","fixation","","","",""
"904","img/120_30.png","74","image-keyboard-response","409","288161","0.0-6.0-1.201","MAGA","2","f","rechts","24","","","self","j","120","true"
"null","<div style=""font-size:60px;"">+</div>","null","html-keyboard-response","410","288463","0.0-6.0-0.202","MAGA","2","f","rechts","24","","fixation","","","",""
"763","img/0_210.png","70","image-keyboard-response","411","289226","0.0-6.0-1.202","MAGA","2","f","rechts","24","","","self","f","0","true"
"null","<div style=""font-size:60px;"">+</div>","null","html-keyboard-response","412","289528","0.0-6.0-0.203","MAGA","2","f","rechts","24","","fixation","","","",""
"905","img/L120_180.png","70","image-keyboard-response","413","290434","0.0-6.0-1.203","MAGA","2","f","rechts","24","","","self","f","120","true"
"null","<div style=""font-size:60px;"">+</div>","null","html-keyboard-response","414","290836","0.0-6.0-0.204","MAGA","2","f","rechts","24","","fixation","","","",""
"977","img/120_330.png","70","image-keyboard-response","415","291815","0.0-6.0-1.204","MAGA","2","f","rechts","24","","","self","f","120","true"
"null","<div style=""font-size:60px;"">+</div>","null","html-keyboard-response","416","292316","0.0-6.0-0.205","MAGA","2","f","rechts","24","","fixation","","","",""
"739","img/90_150.png","70","image-keyboard-response","417","293056","0.0-6.0-1.205","MAGA","2","f","rechts","24","","","self","f","90","true"
"null","<div style=""font-size:60px;"">+</div>","null","html-keyboard-response","418","293408","0.0-6.0-0.206","MAGA","2","f","rechts","24","","fixation","","","",""
"1070","img/0_120.png","74","image-keyboard-response","419","294479","0.0-6.0-1.206","MAGA","2","f","rechts","24","","","self","j","0","true"
"null","<div style=""font-size:60px;"">+</div>","null","html-keyboard-response","420","294831","0.0-6.0-0.207","MAGA","2","f","rechts","24","","fixation","","","",""
"628","img/30_60.png","74","image-keyboard-response","421","295460","0.0-6.0-1.207","MAGA","2","f","rechts","24","","","self","j","30","true"
"11120","<p>Du hast in 95% der Versuche korrekt entschieden.</p><p>Deine durchschnittliche Reaktionszeit war  757ms.</p><p>Dr&uuml;cke eine beliebige Taste, um die Session zu beenden. Vielen Dank!</p>","70","html-keyboard-response","422","306582","0.0-7.0","MAGA","2","f","rechts","24","","","","","",""
