"rt","stimulus","key_press","trial_type","trial_index","time_elapsed","internal_node_id","subject","session","sex","handedness","age","responses","test_part","condition","correct_response","angle","correct"
"6655","<p>Mental Rotation Experiment.</p> <p>Dr&uuml;cke eine beliebige Taste, um anzufangen.</p>","72","html-keyboard-response","0","6657","0.0-0.0","MAGA","1","f","rechts","24","","","","","",""
"2481","","","survey-text","1","9141","0.0-1.0","MAGA","1","f","rechts","24","{""Q0"":""MAGA""}","","","","",""
"5743","","","survey-text","2","14885","0.0-2.0","MAGA","1","f","rechts","24","{""Q0"":""1""}","","","","",""
"12435","","","survey-multi-choice","3","27322","0.0-3.0","MAGA","1","f","rechts","24","{""Q0"":""f"",""Q1"":""rechts""}","","","","",""
"3488","","","survey-text","4","30811","0.0-4.0","MAGA","1","f","rechts","24","{""Q0"":""24""}","","","","",""
"21233","<p> Stell dir vor, dass du vor einem runden Tisch stehst, auf dem sich ein blauer Ball am Tischrand befindet. Entlang des Tischrands ist jeweils ein verschieden langer Pfeil. Nun bewegst du dich entlang dieses Pfeils bis an seine Spitze. Wenn du am Ende des Pfeils angekommen bist, schau zur Tischmitte. </p> <img src='img/90_180.png'></img> <br> <p>Entscheide dann, ob der Ball von deiner neuen (vorgestellten) Position links oder rechts von dir liegt.</p> <p>Dr&uuml;cke die <strong>'f'</strong>-Taste f&uuml;r links, die <strong>'j'</strong>-Taste f&uuml;r rechts.</p> <br><p> Das Bild wird jeweils 1 Sekunde lang pr&auml;sentiert. Du hast 3 Sekunden Zeit eine Entscheidung zu treffen.</p>","74","html-keyboard-response","5","52046","0.0-5.0","MAGA","1","f","rechts","24","","","","","",""
"null","<div style=""font-size:60px;"">+</div>","null","html-keyboard-response","6","53550","0.0-6.0-0.0","MAGA","1","f","rechts","24","","fixation","","","",""
"669","img/30_300.png","70","image-keyboard-response","7","54220","0.0-6.0-1.0","MAGA","1","f","rechts","24","","","self","f","30","true"
"null","<div style=""font-size:60px;"">+</div>","null","html-keyboard-response","8","54571","0.0-6.0-0.1","MAGA","1","f","rechts","24","","fixation","","","",""
"700","img/120_150.png","70","image-keyboard-response","9","55272","0.0-6.0-1.1","MAGA","1","f","rechts","24","","","self","f","120","true"
"null","<div style=""font-size:60px;"">+</div>","null","html-keyboard-response","10","55724","0.0-6.0-0.2","MAGA","1","f","rechts","24","","fixation","","","",""
"586","img/0_30.png","74","image-keyboard-response","11","56311","0.0-6.0-1.2","MAGA","1","f","rechts","24","","","self","j","0","true"
"null","<div style=""font-size:60px;"">+</div>","null","html-keyboard-response","12","56663","0.0-6.0-0.3","MAGA","1","f","rechts","24","","fixation","","","",""
"642","img/0_60.png","74","image-keyboard-response","13","57307","0.0-6.0-1.3","MAGA","1","f","rechts","24","","","self","j","0","true"
"null","<div style=""font-size:60px;"">+</div>","null","html-keyboard-response","14","57809","0.0-6.0-0.4","MAGA","1","f","rechts","24","","fixation","","","",""
"685","img/90_210.png","74","image-keyboard-response","15","58495","0.0-6.0-1.4","MAGA","1","f","rechts","24","","","self","j","90","true"
"null","<div style=""font-size:60px;"">+</div>","null","html-keyboard-response","16","58997","0.0-6.0-0.5","MAGA","1","f","rechts","24","","fixation","","","",""
"911","img/90_120.png","70","image-keyboard-response","17","59910","0.0-6.0-1.5","MAGA","1","f","rechts","24","","","self","f","90","true"
"null","<div style=""font-size:60px;"">+</div>","null","html-keyboard-response","18","60361","0.0-6.0-0.6","MAGA","1","f","rechts","24","","fixation","","","",""
"680","img/90_150.png","70","image-keyboard-response","19","61042","0.0-6.0-1.6","MAGA","1","f","rechts","24","","","self","f","90","true"
"null","<div style=""font-size:60px;"">+</div>","null","html-keyboard-response","20","61343","0.0-6.0-0.7","MAGA","1","f","rechts","24","","fixation","","","",""
"1041","img/L30_180.png","70","image-keyboard-response","21","62386","0.0-6.0-1.7","MAGA","1","f","rechts","24","","","self","f","30","true"
"null","<div style=""font-size:60px;"">+</div>","null","html-keyboard-response","22","62787","0.0-6.0-0.8","MAGA","1","f","rechts","24","","fixation","","","",""
"784","img/60_180.png","74","image-keyboard-response","23","63574","0.0-6.0-1.8","MAGA","1","f","rechts","24","","","self","j","60","true"
"null","<div style=""font-size:60px;"">+</div>","null","html-keyboard-response","24","63925","0.0-6.0-0.9","MAGA","1","f","rechts","24","","fixation","","","",""
"1195","img/90_300.png","70","image-keyboard-response","25","65121","0.0-6.0-1.9","MAGA","1","f","rechts","24","","","self","f","90","true"
"null","<div style=""font-size:60px;"">+</div>","null","html-keyboard-response","26","65423","0.0-6.0-0.10","MAGA","1","f","rechts","24","","fixation","","","",""
"918","img/150_90.png","70","image-keyboard-response","27","66343","0.0-6.0-1.10","MAGA","1","f","rechts","24","","","self","f","150","true"
"null","<div style=""font-size:60px;"">+</div>","null","html-keyboard-response","28","66794","0.0-6.0-0.11","MAGA","1","f","rechts","24","","fixation","","","",""
"895","img/60_150.png","70","image-keyboard-response","29","67692","0.0-6.0-1.11","MAGA","1","f","rechts","24","","","self","f","60","true"
"null","<div style=""font-size:60px;"">+</div>","null","html-keyboard-response","30","68094","0.0-6.0-0.12","MAGA","1","f","rechts","24","","fixation","","","",""
"726","img/L120_180.png","70","image-keyboard-response","31","68821","0.0-6.0-1.12","MAGA","1","f","rechts","24","","","self","f","120","true"
"null","<div style=""font-size:60px;"">+</div>","null","html-keyboard-response","32","69123","0.0-6.0-0.13","MAGA","1","f","rechts","24","","fixation","","","",""
"740","img/120_210.png","74","image-keyboard-response","33","69865","0.0-6.0-1.13","MAGA","1","f","rechts","24","","","self","j","120","true"
"null","<div style=""font-size:60px;"">+</div>","null","html-keyboard-response","34","70267","0.0-6.0-0.14","MAGA","1","f","rechts","24","","fixation","","","",""
"904","img/30_270.png","70","image-keyboard-response","35","71173","0.0-6.0-1.14","MAGA","1","f","rechts","24","","","self","f","30","true"
"null","<div style=""font-size:60px;"">+</div>","null","html-keyboard-response","36","71524","0.0-6.0-0.15","MAGA","1","f","rechts","24","","fixation","","","",""
"958","img/30_120.png","74","image-keyboard-response","37","72484","0.0-6.0-1.15","MAGA","1","f","rechts","24","","","self","j","30","true"
"null","<div style=""font-size:60px;"">+</div>","null","html-keyboard-response","38","72936","0.0-6.0-0.16","MAGA","1","f","rechts","24","","fixation","","","",""
"651","img/0_270.png","70","image-keyboard-response","39","73588","0.0-6.0-1.16","MAGA","1","f","rechts","24","","","self","f","0","true"
"null","<div style=""font-size:60px;"">+</div>","null","html-keyboard-response","40","74090","0.0-6.0-0.17","MAGA","1","f","rechts","24","","fixation","","","",""
"1082","img/60_30.png","70","image-keyboard-response","41","75173","0.0-6.0-1.17","MAGA","1","f","rechts","24","","","self","j","60","false"
"null","<div style=""font-size:60px;"">+</div>","null","html-keyboard-response","42","75575","0.0-6.0-0.18","MAGA","1","f","rechts","24","","fixation","","","",""
"805","img/150_60.png","70","image-keyboard-response","43","76381","0.0-6.0-1.18","MAGA","1","f","rechts","24","","","self","f","150","true"
"null","<div style=""font-size:60px;"">+</div>","null","html-keyboard-response","44","76833","0.0-6.0-0.19","MAGA","1","f","rechts","24","","fixation","","","",""
"707","img/0_210.png","70","image-keyboard-response","45","77541","0.0-6.0-1.19","MAGA","1","f","rechts","24","","","self","f","0","true"
"null","<div style=""font-size:60px;"">+</div>","null","html-keyboard-response","46","77943","0.0-6.0-0.20","MAGA","1","f","rechts","24","","fixation","","","",""
"875","img/90_30.png","74","image-keyboard-response","47","78820","0.0-6.0-1.20","MAGA","1","f","rechts","24","","","self","j","90","true"
"null","<div style=""font-size:60px;"">+</div>","null","html-keyboard-response","48","79222","0.0-6.0-0.21","MAGA","1","f","rechts","24","","fixation","","","",""
"802","img/90_330.png","70","image-keyboard-response","49","80025","0.0-6.0-1.21","MAGA","1","f","rechts","24","","","self","f","90","true"
"null","<div style=""font-size:60px;"">+</div>","null","html-keyboard-response","50","80326","0.0-6.0-0.22","MAGA","1","f","rechts","24","","fixation","","","",""
"966","img/30_240.png","70","image-keyboard-response","51","81293","0.0-6.0-1.22","MAGA","1","f","rechts","24","","","self","f","30","true"
"null","<div style=""font-size:60px;"">+</div>","null","html-keyboard-response","52","81595","0.0-6.0-0.23","MAGA","1","f","rechts","24","","fixation","","","",""
"846","img/60_330.png","70","image-keyboard-response","53","82442","0.0-6.0-1.23","MAGA","1","f","rechts","24","","","self","f","60","true"
"null","<div style=""font-size:60px;"">+</div>","null","html-keyboard-response","54","82794","0.0-6.0-0.24","MAGA","1","f","rechts","24","","fixation","","","",""
"746","img/120_270.png","74","image-keyboard-response","55","83541","0.0-6.0-1.24","MAGA","1","f","rechts","24","","","self","j","120","true"
"null","<div style=""font-size:60px;"">+</div>","null","html-keyboard-response","56","83993","0.0-6.0-0.25","MAGA","1","f","rechts","24","","fixation","","","",""
"651","img/0_120.png","74","image-keyboard-response","57","84645","0.0-6.0-1.25","MAGA","1","f","rechts","24","","","self","j","0","true"
"null","<div style=""font-size:60px;"">+</div>","null","html-keyboard-response","58","84997","0.0-6.0-0.26","MAGA","1","f","rechts","24","","fixation","","","",""
"910","img/30_60.png","70","image-keyboard-response","59","85908","0.0-6.0-1.26","MAGA","1","f","rechts","24","","","self","j","30","false"
"null","<div style=""font-size:60px;"">+</div>","null","html-keyboard-response","60","86310","0.0-6.0-0.27","MAGA","1","f","rechts","24","","fixation","","","",""
"1077","img/150_300.png","74","image-keyboard-response","61","87388","0.0-6.0-1.27","MAGA","1","f","rechts","24","","","self","j","150","true"
"null","<div style=""font-size:60px;"">+</div>","null","html-keyboard-response","62","87740","0.0-6.0-0.28","MAGA","1","f","rechts","24","","fixation","","","",""
"662","img/150_180.png","74","image-keyboard-response","63","88403","0.0-6.0-1.28","MAGA","1","f","rechts","24","","","self","j","150","true"
"null","<div style=""font-size:60px;"">+</div>","null","html-keyboard-response","64","88754","0.0-6.0-0.29","MAGA","1","f","rechts","24","","fixation","","","",""
"813","img/150_120.png","70","image-keyboard-response","65","89569","0.0-6.0-1.29","MAGA","1","f","rechts","24","","","self","f","150","true"
"null","<div style=""font-size:60px;"">+</div>","null","html-keyboard-response","66","89971","0.0-6.0-0.30","MAGA","1","f","rechts","24","","fixation","","","",""
"881","img/120_30.png","70","image-keyboard-response","67","90853","0.0-6.0-1.30","MAGA","1","f","rechts","24","","","self","j","120","false"
"null","<div style=""font-size:60px;"">+</div>","null","html-keyboard-response","68","91305","0.0-6.0-0.31","MAGA","1","f","rechts","24","","fixation","","","",""
"1264","img/120_330.png","70","image-keyboard-response","69","92570","0.0-6.0-1.31","MAGA","1","f","rechts","24","","","self","f","120","true"
"null","<div style=""font-size:60px;"">+</div>","null","html-keyboard-response","70","93022","0.0-6.0-0.32","MAGA","1","f","rechts","24","","fixation","","","",""
"730","img/120_180.png","74","image-keyboard-response","71","93753","0.0-6.0-1.32","MAGA","1","f","rechts","24","","","self","j","120","true"
"null","<div style=""font-size:60px;"">+</div>","null","html-keyboard-response","72","94155","0.0-6.0-0.33","MAGA","1","f","rechts","24","","fixation","","","",""
"729","img/L150_180.png","70","image-keyboard-response","73","94885","0.0-6.0-1.33","MAGA","1","f","rechts","24","","","self","f","150","true"
"null","<div style=""font-size:60px;"">+</div>","null","html-keyboard-response","74","95337","0.0-6.0-0.34","MAGA","1","f","rechts","24","","fixation","","","",""
"675","img/0_300.png","70","image-keyboard-response","75","96013","0.0-6.0-1.34","MAGA","1","f","rechts","24","","","self","f","0","true"
"null","<div style=""font-size:60px;"">+</div>","null","html-keyboard-response","76","96465","0.0-6.0-0.35","MAGA","1","f","rechts","24","","fixation","","","",""
"614","img/0_90.png","74","image-keyboard-response","77","97080","0.0-6.0-1.35","MAGA","1","f","rechts","24","","","self","j","0","true"
"null","<div style=""font-size:60px;"">+</div>","null","html-keyboard-response","78","97582","0.0-6.0-0.36","MAGA","1","f","rechts","24","","fixation","","","",""
"703","img/150_240.png","74","image-keyboard-response","79","98286","0.0-6.0-1.36","MAGA","1","f","rechts","24","","","self","j","150","true"
"null","<div style=""font-size:60px;"">+</div>","null","html-keyboard-response","80","98688","0.0-6.0-0.37","MAGA","1","f","rechts","24","","fixation","","","",""
"783","img/90_60.png","74","image-keyboard-response","81","99472","0.0-6.0-1.37","MAGA","1","f","rechts","24","","","self","j","90","true"
"null","<div style=""font-size:60px;"">+</div>","null","html-keyboard-response","82","99974","0.0-6.0-0.38","MAGA","1","f","rechts","24","","fixation","","","",""
"767","img/120_90.png","70","image-keyboard-response","83","100742","0.0-6.0-1.38","MAGA","1","f","rechts","24","","","self","f","120","true"
"null","<div style=""font-size:60px;"">+</div>","null","html-keyboard-response","84","101244","0.0-6.0-0.39","MAGA","1","f","rechts","24","","fixation","","","",""
"638","img/L90_180.png","70","image-keyboard-response","85","101883","0.0-6.0-1.39","MAGA","1","f","rechts","24","","","self","f","90","true"
"null","<div style=""font-size:60px;"">+</div>","null","html-keyboard-response","86","102385","0.0-6.0-0.40","MAGA","1","f","rechts","24","","fixation","","","",""
"594","img/L60_180.png","70","image-keyboard-response","87","102980","0.0-6.0-1.40","MAGA","1","f","rechts","24","","","self","f","60","true"
"null","<div style=""font-size:60px;"">+</div>","null","html-keyboard-response","88","103431","0.0-6.0-0.41","MAGA","1","f","rechts","24","","fixation","","","",""
"588","img/90_180.png","74","image-keyboard-response","89","104020","0.0-6.0-1.41","MAGA","1","f","rechts","24","","","self","j","90","true"
"null","<div style=""font-size:60px;"">+</div>","null","html-keyboard-response","90","104371","0.0-6.0-0.42","MAGA","1","f","rechts","24","","fixation","","","",""
"731","img/60_270.png","70","image-keyboard-response","91","105103","0.0-6.0-1.42","MAGA","1","f","rechts","24","","","self","f","60","true"
"null","<div style=""font-size:60px;"">+</div>","null","html-keyboard-response","92","105405","0.0-6.0-0.43","MAGA","1","f","rechts","24","","fixation","","","",""
"747","img/0_150.png","74","image-keyboard-response","93","106153","0.0-6.0-1.43","MAGA","1","f","rechts","24","","","self","j","0","true"
"null","<div style=""font-size:60px;"">+</div>","null","html-keyboard-response","94","106454","0.0-6.0-0.44","MAGA","1","f","rechts","24","","fixation","","","",""
"636","img/0_240.png","70","image-keyboard-response","95","107093","0.0-6.0-1.44","MAGA","1","f","rechts","24","","","self","f","0","true"
"null","<div style=""font-size:60px;"">+</div>","null","html-keyboard-response","96","107494","0.0-6.0-0.45","MAGA","1","f","rechts","24","","fixation","","","",""
"691","img/60_210.png","74","image-keyboard-response","97","108187","0.0-6.0-1.45","MAGA","1","f","rechts","24","","","self","j","60","true"
"null","<div style=""font-size:60px;"">+</div>","null","html-keyboard-response","98","108689","0.0-6.0-0.46","MAGA","1","f","rechts","24","","fixation","","","",""
"574","img/90_240.png","74","image-keyboard-response","99","109264","0.0-6.0-1.46","MAGA","1","f","rechts","24","","","self","j","90","true"
"null","<div style=""font-size:60px;"">+</div>","null","html-keyboard-response","100","109716","0.0-6.0-0.47","MAGA","1","f","rechts","24","","fixation","","","",""
"821","img/60_90.png","74","image-keyboard-response","101","110538","0.0-6.0-1.47","MAGA","1","f","rechts","24","","","self","j","60","true"
"null","<div style=""font-size:60px;"">+</div>","null","html-keyboard-response","102","111040","0.0-6.0-0.48","MAGA","1","f","rechts","24","","fixation","","","",""
"608","img/0_330.png","70","image-keyboard-response","103","111650","0.0-6.0-1.48","MAGA","1","f","rechts","24","","","self","f","0","true"
"null","<div style=""font-size:60px;"">+</div>","null","html-keyboard-response","104","112001","0.0-6.0-0.49","MAGA","1","f","rechts","24","","fixation","","","",""
"684","img/30_180.png","74","image-keyboard-response","105","112686","0.0-6.0-1.49","MAGA","1","f","rechts","24","","","self","j","30","true"
"null","<div style=""font-size:60px;"">+</div>","null","html-keyboard-response","106","113137","0.0-6.0-0.50","MAGA","1","f","rechts","24","","fixation","","","",""
"684","img/150_270.png","74","image-keyboard-response","107","113822","0.0-6.0-1.50","MAGA","1","f","rechts","24","","","self","j","150","true"
"null","<div style=""font-size:60px;"">+</div>","null","html-keyboard-response","108","114324","0.0-6.0-0.51","MAGA","1","f","rechts","24","","fixation","","","",""
"646","img/30_90.png","74","image-keyboard-response","109","114972","0.0-6.0-1.51","MAGA","1","f","rechts","24","","","self","j","30","true"
"null","<div style=""font-size:60px;"">+</div>","null","html-keyboard-response","110","115273","0.0-6.0-0.52","MAGA","1","f","rechts","24","","fixation","","","",""
"1063","img/120_330.png","70","image-keyboard-response","111","116337","0.0-6.0-1.52","MAGA","1","f","rechts","24","","","self","f","120","true"
"null","<div style=""font-size:60px;"">+</div>","null","html-keyboard-response","112","116839","0.0-6.0-0.53","MAGA","1","f","rechts","24","","fixation","","","",""
"765","img/150_300.png","74","image-keyboard-response","113","117604","0.0-6.0-1.53","MAGA","1","f","rechts","24","","","self","j","150","true"
"null","<div style=""font-size:60px;"">+</div>","null","html-keyboard-response","114","118106","0.0-6.0-0.54","MAGA","1","f","rechts","24","","fixation","","","",""
"788","img/0_120.png","74","image-keyboard-response","115","118895","0.0-6.0-1.54","MAGA","1","f","rechts","24","","","self","j","0","true"
"null","<div style=""font-size:60px;"">+</div>","null","html-keyboard-response","116","119397","0.0-6.0-0.55","MAGA","1","f","rechts","24","","fixation","","","",""
"861","img/30_240.png","70","image-keyboard-response","117","120259","0.0-6.0-1.55","MAGA","1","f","rechts","24","","","self","f","30","true"
"null","<div style=""font-size:60px;"">+</div>","null","html-keyboard-response","118","120711","0.0-6.0-0.56","MAGA","1","f","rechts","24","","fixation","","","",""
"576","img/150_180.png","74","image-keyboard-response","119","121288","0.0-6.0-1.56","MAGA","1","f","rechts","24","","","self","j","150","true"
"null","<div style=""font-size:60px;"">+</div>","null","html-keyboard-response","120","121640","0.0-6.0-0.57","MAGA","1","f","rechts","24","","fixation","","","",""
"867","img/60_270.png","70","image-keyboard-response","121","122507","0.0-6.0-1.57","MAGA","1","f","rechts","24","","","self","f","60","true"
"null","<div style=""font-size:60px;"">+</div>","null","html-keyboard-response","122","122859","0.0-6.0-0.58","MAGA","1","f","rechts","24","","fixation","","","",""
"842","img/60_180.png","74","image-keyboard-response","123","123702","0.0-6.0-1.58","MAGA","1","f","rechts","24","","","self","j","60","true"
"null","<div style=""font-size:60px;"">+</div>","null","html-keyboard-response","124","124154","0.0-6.0-0.59","MAGA","1","f","rechts","24","","fixation","","","",""
"790","img/90_210.png","74","image-keyboard-response","125","124946","0.0-6.0-1.59","MAGA","1","f","rechts","24","","","self","j","90","true"
"null","<div style=""font-size:60px;"">+</div>","null","html-keyboard-response","126","125347","0.0-6.0-0.60","MAGA","1","f","rechts","24","","fixation","","","",""
"861","img/60_150.png","70","image-keyboard-response","127","126209","0.0-6.0-1.60","MAGA","1","f","rechts","24","","","self","f","60","true"
"null","<div style=""font-size:60px;"">+</div>","null","html-keyboard-response","128","126661","0.0-6.0-0.61","MAGA","1","f","rechts","24","","fixation","","","",""
"848","img/30_90.png","74","image-keyboard-response","129","127509","0.0-6.0-1.61","MAGA","1","f","rechts","24","","","self","j","30","true"
"null","<div style=""font-size:60px;"">+</div>","null","html-keyboard-response","130","127961","0.0-6.0-0.62","MAGA","1","f","rechts","24","","fixation","","","",""
"739","img/90_150.png","70","image-keyboard-response","131","128700","0.0-6.0-1.62","MAGA","1","f","rechts","24","","","self","f","90","true"
"null","<div style=""font-size:60px;"">+</div>","null","html-keyboard-response","132","129151","0.0-6.0-0.63","MAGA","1","f","rechts","24","","fixation","","","",""
"709","img/0_300.png","70","image-keyboard-response","133","129861","0.0-6.0-1.63","MAGA","1","f","rechts","24","","","self","f","0","true"
"null","<div style=""font-size:60px;"">+</div>","null","html-keyboard-response","134","130263","0.0-6.0-0.64","MAGA","1","f","rechts","24","","fixation","","","",""
"732","img/150_270.png","74","image-keyboard-response","135","130996","0.0-6.0-1.64","MAGA","1","f","rechts","24","","","self","j","150","true"
"null","<div style=""font-size:60px;"">+</div>","null","html-keyboard-response","136","131498","0.0-6.0-0.65","MAGA","1","f","rechts","24","","fixation","","","",""
"800","img/60_210.png","74","image-keyboard-response","137","132299","0.0-6.0-1.65","MAGA","1","f","rechts","24","","","self","j","60","true"
"null","<div style=""font-size:60px;"">+</div>","null","html-keyboard-response","138","132801","0.0-6.0-0.66","MAGA","1","f","rechts","24","","fixation","","","",""
"598","img/0_30.png","74","image-keyboard-response","139","133401","0.0-6.0-1.66","MAGA","1","f","rechts","24","","","self","j","0","true"
"null","<div style=""font-size:60px;"">+</div>","null","html-keyboard-response","140","133852","0.0-6.0-0.67","MAGA","1","f","rechts","24","","fixation","","","",""
"1014","img/90_30.png","74","image-keyboard-response","141","134867","0.0-6.0-1.67","MAGA","1","f","rechts","24","","","self","j","90","true"
"null","<div style=""font-size:60px;"">+</div>","null","html-keyboard-response","142","135369","0.0-6.0-0.68","MAGA","1","f","rechts","24","","fixation","","","",""
"768","img/30_300.png","70","image-keyboard-response","143","136138","0.0-6.0-1.68","MAGA","1","f","rechts","24","","","self","f","30","true"
"null","<div style=""font-size:60px;"">+</div>","null","html-keyboard-response","144","136640","0.0-6.0-0.69","MAGA","1","f","rechts","24","","fixation","","","",""
"914","img/120_180.png","74","image-keyboard-response","145","137554","0.0-6.0-1.69","MAGA","1","f","rechts","24","","","self","j","120","true"
"null","<div style=""font-size:60px;"">+</div>","null","html-keyboard-response","146","138055","0.0-6.0-0.70","MAGA","1","f","rechts","24","","fixation","","","",""
"1138","img/60_330.png","70","image-keyboard-response","147","139194","0.0-6.0-1.70","MAGA","1","f","rechts","24","","","self","f","60","true"
"null","<div style=""font-size:60px;"">+</div>","null","html-keyboard-response","148","139545","0.0-6.0-0.71","MAGA","1","f","rechts","24","","fixation","","","",""
"677","img/90_180.png","74","image-keyboard-response","149","140223","0.0-6.0-1.71","MAGA","1","f","rechts","24","","","self","j","90","true"
"null","<div style=""font-size:60px;"">+</div>","null","html-keyboard-response","150","140524","0.0-6.0-0.72","MAGA","1","f","rechts","24","","fixation","","","",""
"677","img/0_270.png","70","image-keyboard-response","151","141202","0.0-6.0-1.72","MAGA","1","f","rechts","24","","","self","f","0","true"
"null","<div style=""font-size:60px;"">+</div>","null","html-keyboard-response","152","141504","0.0-6.0-0.73","MAGA","1","f","rechts","24","","fixation","","","",""
"775","img/30_270.png","70","image-keyboard-response","153","142279","0.0-6.0-1.73","MAGA","1","f","rechts","24","","","self","f","30","true"
"null","<div style=""font-size:60px;"">+</div>","null","html-keyboard-response","154","142781","0.0-6.0-0.74","MAGA","1","f","rechts","24","","fixation","","","",""
"716","img/90_240.png","74","image-keyboard-response","155","143497","0.0-6.0-1.74","MAGA","1","f","rechts","24","","","self","j","90","true"
"null","<div style=""font-size:60px;"">+</div>","null","html-keyboard-response","156","143799","0.0-6.0-0.75","MAGA","1","f","rechts","24","","fixation","","","",""
"670","img/0_60.png","74","image-keyboard-response","157","144469","0.0-6.0-1.75","MAGA","1","f","rechts","24","","","self","j","0","true"
"null","<div style=""font-size:60px;"">+</div>","null","html-keyboard-response","158","144771","0.0-6.0-0.76","MAGA","1","f","rechts","24","","fixation","","","",""
"773","img/120_30.png","70","image-keyboard-response","159","145544","0.0-6.0-1.76","MAGA","1","f","rechts","24","","","self","j","120","false"
"null","<div style=""font-size:60px;"">+</div>","null","html-keyboard-response","160","145846","0.0-6.0-0.77","MAGA","1","f","rechts","24","","fixation","","","",""
"920","img/120_210.png","74","image-keyboard-response","161","146766","0.0-6.0-1.77","MAGA","1","f","rechts","24","","","self","j","120","true"
"null","<div style=""font-size:60px;"">+</div>","null","html-keyboard-response","162","147168","0.0-6.0-0.78","MAGA","1","f","rechts","24","","fixation","","","",""
"851","img/150_120.png","70","image-keyboard-response","163","148019","0.0-6.0-1.78","MAGA","1","f","rechts","24","","","self","f","150","true"
"null","<div style=""font-size:60px;"">+</div>","null","html-keyboard-response","164","148521","0.0-6.0-0.79","MAGA","1","f","rechts","24","","fixation","","","",""
"599","img/0_330.png","70","image-keyboard-response","165","149121","0.0-6.0-1.79","MAGA","1","f","rechts","24","","","self","f","0","true"
"null","<div style=""font-size:60px;"">+</div>","null","html-keyboard-response","166","149623","0.0-6.0-0.80","MAGA","1","f","rechts","24","","fixation","","","",""
"634","img/0_90.png","74","image-keyboard-response","167","150257","0.0-6.0-1.80","MAGA","1","f","rechts","24","","","self","j","0","true"
"null","<div style=""font-size:60px;"">+</div>","null","html-keyboard-response","168","150558","0.0-6.0-0.81","MAGA","1","f","rechts","24","","fixation","","","",""
"789","img/150_90.png","70","image-keyboard-response","169","151348","0.0-6.0-1.81","MAGA","1","f","rechts","24","","","self","f","150","true"
"null","<div style=""font-size:60px;"">+</div>","null","html-keyboard-response","170","151850","0.0-6.0-0.82","MAGA","1","f","rechts","24","","fixation","","","",""
"855","img/60_90.png","74","image-keyboard-response","171","152705","0.0-6.0-1.82","MAGA","1","f","rechts","24","","","self","j","60","true"
"null","<div style=""font-size:60px;"">+</div>","null","html-keyboard-response","172","153007","0.0-6.0-0.83","MAGA","1","f","rechts","24","","fixation","","","",""
"687","img/150_240.png","70","image-keyboard-response","173","153694","0.0-6.0-1.83","MAGA","1","f","rechts","24","","","self","j","150","false"
"null","<div style=""font-size:60px;"">+</div>","null","html-keyboard-response","174","154196","0.0-6.0-0.84","MAGA","1","f","rechts","24","","fixation","","","",""
"675","img/120_150.png","70","image-keyboard-response","175","154872","0.0-6.0-1.84","MAGA","1","f","rechts","24","","","self","f","120","true"
"null","<div style=""font-size:60px;"">+</div>","null","html-keyboard-response","176","155324","0.0-6.0-0.85","MAGA","1","f","rechts","24","","fixation","","","",""
"664","img/0_240.png","70","image-keyboard-response","177","155988","0.0-6.0-1.85","MAGA","1","f","rechts","24","","","self","f","0","true"
"null","<div style=""font-size:60px;"">+</div>","null","html-keyboard-response","178","156490","0.0-6.0-0.86","MAGA","1","f","rechts","24","","fixation","","","",""
"724","img/60_30.png","74","image-keyboard-response","179","157214","0.0-6.0-1.86","MAGA","1","f","rechts","24","","","self","j","60","true"
"null","<div style=""font-size:60px;"">+</div>","null","html-keyboard-response","180","157666","0.0-6.0-0.87","MAGA","1","f","rechts","24","","fixation","","","",""
"794","img/L90_180.png","70","image-keyboard-response","181","158461","0.0-6.0-1.87","MAGA","1","f","rechts","24","","","self","f","90","true"
"null","<div style=""font-size:60px;"">+</div>","null","html-keyboard-response","182","158913","0.0-6.0-0.88","MAGA","1","f","rechts","24","","fixation","","","",""
"683","img/90_60.png","74","image-keyboard-response","183","159597","0.0-6.0-1.88","MAGA","1","f","rechts","24","","","self","j","90","true"
"null","<div style=""font-size:60px;"">+</div>","null","html-keyboard-response","184","159949","0.0-6.0-0.89","MAGA","1","f","rechts","24","","fixation","","","",""
"881","img/L30_180.png","70","image-keyboard-response","185","160831","0.0-6.0-1.89","MAGA","1","f","rechts","24","","","self","f","30","true"
"null","<div style=""font-size:60px;"">+</div>","null","html-keyboard-response","186","161283","0.0-6.0-0.90","MAGA","1","f","rechts","24","","fixation","","","",""
"731","img/90_120.png","70","image-keyboard-response","187","162015","0.0-6.0-1.90","MAGA","1","f","rechts","24","","","self","f","90","true"
"null","<div style=""font-size:60px;"">+</div>","null","html-keyboard-response","188","162417","0.0-6.0-0.91","MAGA","1","f","rechts","24","","fixation","","","",""
"894","img/90_330.png","74","image-keyboard-response","189","163312","0.0-6.0-1.91","MAGA","1","f","rechts","24","","","self","f","90","false"
"null","<div style=""font-size:60px;"">+</div>","null","html-keyboard-response","190","163814","0.0-6.0-0.92","MAGA","1","f","rechts","24","","fixation","","","",""
"789","img/30_60.png","74","image-keyboard-response","191","164603","0.0-6.0-1.92","MAGA","1","f","rechts","24","","","self","j","30","true"
"null","<div style=""font-size:60px;"">+</div>","null","html-keyboard-response","192","165005","0.0-6.0-0.93","MAGA","1","f","rechts","24","","fixation","","","",""
"824","img/30_180.png","74","image-keyboard-response","193","165830","0.0-6.0-1.93","MAGA","1","f","rechts","24","","","self","j","30","true"
"null","<div style=""font-size:60px;"">+</div>","null","html-keyboard-response","194","166332","0.0-6.0-0.94","MAGA","1","f","rechts","24","","fixation","","","",""
"724","img/120_90.png","70","image-keyboard-response","195","167057","0.0-6.0-1.94","MAGA","1","f","rechts","24","","","self","f","120","true"
"null","<div style=""font-size:60px;"">+</div>","null","html-keyboard-response","196","167559","0.0-6.0-0.95","MAGA","1","f","rechts","24","","fixation","","","",""
"667","img/0_150.png","74","image-keyboard-response","197","168226","0.0-6.0-1.95","MAGA","1","f","rechts","24","","","self","j","0","true"
"null","<div style=""font-size:60px;"">+</div>","null","html-keyboard-response","198","168677","0.0-6.0-0.96","MAGA","1","f","rechts","24","","fixation","","","",""
"692","img/0_210.png","70","image-keyboard-response","199","169370","0.0-6.0-1.96","MAGA","1","f","rechts","24","","","self","f","0","true"
"null","<div style=""font-size:60px;"">+</div>","null","html-keyboard-response","200","169822","0.0-6.0-0.97","MAGA","1","f","rechts","24","","fixation","","","",""
"607","img/30_120.png","74","image-keyboard-response","201","170429","0.0-6.0-1.97","MAGA","1","f","rechts","24","","","self","j","30","true"
"null","<div style=""font-size:60px;"">+</div>","null","html-keyboard-response","202","170881","0.0-6.0-0.98","MAGA","1","f","rechts","24","","fixation","","","",""
"1076","img/90_300.png","70","image-keyboard-response","203","171957","0.0-6.0-1.98","MAGA","1","f","rechts","24","","","self","f","90","true"
"null","<div style=""font-size:60px;"">+</div>","null","html-keyboard-response","204","172358","0.0-6.0-0.99","MAGA","1","f","rechts","24","","fixation","","","",""
"801","img/L60_180.png","70","image-keyboard-response","205","173159","0.0-6.0-1.99","MAGA","1","f","rechts","24","","","self","f","60","true"
"null","<div style=""font-size:60px;"">+</div>","null","html-keyboard-response","206","173461","0.0-6.0-0.100","MAGA","1","f","rechts","24","","fixation","","","",""
"617","img/L120_180.png","70","image-keyboard-response","207","174079","0.0-6.0-1.100","MAGA","1","f","rechts","24","","","self","f","120","true"
"null","<div style=""font-size:60px;"">+</div>","null","html-keyboard-response","208","174381","0.0-6.0-0.101","MAGA","1","f","rechts","24","","fixation","","","",""
"579","img/L150_180.png","70","image-keyboard-response","209","174960","0.0-6.0-1.101","MAGA","1","f","rechts","24","","","self","f","150","true"
"null","<div style=""font-size:60px;"">+</div>","null","html-keyboard-response","210","175361","0.0-6.0-0.102","MAGA","1","f","rechts","24","","fixation","","","",""
"989","img/150_60.png","74","image-keyboard-response","211","176350","0.0-6.0-1.102","MAGA","1","f","rechts","24","","","self","f","150","false"
"null","<div style=""font-size:60px;"">+</div>","null","html-keyboard-response","212","176852","0.0-6.0-0.103","MAGA","1","f","rechts","24","","fixation","","","",""
"1174","img/120_270.png","70","image-keyboard-response","213","178027","0.0-6.0-1.103","MAGA","1","f","rechts","24","","","self","j","120","false"
"null","<div style=""font-size:60px;"">+</div>","null","html-keyboard-response","214","178479","0.0-6.0-0.104","MAGA","1","f","rechts","24","","fixation","","","",""
"780","img/150_90.png","70","image-keyboard-response","215","179259","0.0-6.0-1.104","MAGA","1","f","rechts","24","","","self","f","150","true"
"null","<div style=""font-size:60px;"">+</div>","null","html-keyboard-response","216","179661","0.0-6.0-0.105","MAGA","1","f","rechts","24","","fixation","","","",""
"759","img/0_90.png","74","image-keyboard-response","217","180420","0.0-6.0-1.105","MAGA","1","f","rechts","24","","","self","j","0","true"
"null","<div style=""font-size:60px;"">+</div>","null","html-keyboard-response","218","180871","0.0-6.0-0.106","MAGA","1","f","rechts","24","","fixation","","","",""
"876","img/60_90.png","74","image-keyboard-response","219","181748","0.0-6.0-1.106","MAGA","1","f","rechts","24","","","self","j","60","true"
"null","<div style=""font-size:60px;"">+</div>","null","html-keyboard-response","220","182050","0.0-6.0-0.107","MAGA","1","f","rechts","24","","fixation","","","",""
"1006","img/90_60.png","74","image-keyboard-response","221","183056","0.0-6.0-1.107","MAGA","1","f","rechts","24","","","self","j","90","true"
"null","<div style=""font-size:60px;"">+</div>","null","html-keyboard-response","222","183408","0.0-6.0-0.108","MAGA","1","f","rechts","24","","fixation","","","",""
"776","img/L60_180.png","70","image-keyboard-response","223","184184","0.0-6.0-1.108","MAGA","1","f","rechts","24","","","self","f","60","true"
"null","<div style=""font-size:60px;"">+</div>","null","html-keyboard-response","224","184486","0.0-6.0-0.109","MAGA","1","f","rechts","24","","fixation","","","",""
"815","img/150_240.png","74","image-keyboard-response","225","185301","0.0-6.0-1.109","MAGA","1","f","rechts","24","","","self","j","150","true"
"null","<div style=""font-size:60px;"">+</div>","null","html-keyboard-response","226","185603","0.0-6.0-0.110","MAGA","1","f","rechts","24","","fixation","","","",""
"1004","img/90_330.png","70","image-keyboard-response","227","186607","0.0-6.0-1.110","MAGA","1","f","rechts","24","","","self","f","90","true"
"null","<div style=""font-size:60px;"">+</div>","null","html-keyboard-response","228","187059","0.0-6.0-0.111","MAGA","1","f","rechts","24","","fixation","","","",""
"672","img/0_150.png","74","image-keyboard-response","229","187732","0.0-6.0-1.111","MAGA","1","f","rechts","24","","","self","j","0","true"
"null","<div style=""font-size:60px;"">+</div>","null","html-keyboard-response","230","188234","0.0-6.0-0.112","MAGA","1","f","rechts","24","","fixation","","","",""
"707","img/150_120.png","70","image-keyboard-response","231","188941","0.0-6.0-1.112","MAGA","1","f","rechts","24","","","self","f","150","true"
"null","<div style=""font-size:60px;"">+</div>","null","html-keyboard-response","232","189442","0.0-6.0-0.113","MAGA","1","f","rechts","24","","fixation","","","",""
"1062","img/60_330.png","74","image-keyboard-response","233","190505","0.0-6.0-1.113","MAGA","1","f","rechts","24","","","self","f","60","false"
"null","<div style=""font-size:60px;"">+</div>","null","html-keyboard-response","234","190957","0.0-6.0-0.114","MAGA","1","f","rechts","24","","fixation","","","",""
"667","img/0_60.png","74","image-keyboard-response","235","191625","0.0-6.0-1.114","MAGA","1","f","rechts","24","","","self","j","0","true"
"null","<div style=""font-size:60px;"">+</div>","null","html-keyboard-response","236","192026","0.0-6.0-0.115","MAGA","1","f","rechts","24","","fixation","","","",""
"844","img/0_270.png","70","image-keyboard-response","237","192871","0.0-6.0-1.115","MAGA","1","f","rechts","24","","","self","f","0","true"
"null","<div style=""font-size:60px;"">+</div>","null","html-keyboard-response","238","193373","0.0-6.0-0.116","MAGA","1","f","rechts","24","","fixation","","","",""
"597","img/30_300.png","70","image-keyboard-response","239","193970","0.0-6.0-1.116","MAGA","1","f","rechts","24","","","self","f","30","true"
"null","<div style=""font-size:60px;"">+</div>","null","html-keyboard-response","240","194371","0.0-6.0-0.117","MAGA","1","f","rechts","24","","fixation","","","",""
"738","img/90_180.png","74","image-keyboard-response","241","195110","0.0-6.0-1.117","MAGA","1","f","rechts","24","","","self","j","90","true"
"null","<div style=""font-size:60px;"">+</div>","null","html-keyboard-response","242","195562","0.0-6.0-0.118","MAGA","1","f","rechts","24","","fixation","","","",""
"618","img/120_210.png","74","image-keyboard-response","243","196180","0.0-6.0-1.118","MAGA","1","f","rechts","24","","","self","j","120","true"
"null","<div style=""font-size:60px;"">+</div>","null","html-keyboard-response","244","196631","0.0-6.0-0.119","MAGA","1","f","rechts","24","","fixation","","","",""
"680","img/120_270.png","74","image-keyboard-response","245","197313","0.0-6.0-1.119","MAGA","1","f","rechts","24","","","self","j","120","true"
"null","<div style=""font-size:60px;"">+</div>","null","html-keyboard-response","246","197764","0.0-6.0-0.120","MAGA","1","f","rechts","24","","fixation","","","",""
"801","img/150_300.png","74","image-keyboard-response","247","198567","0.0-6.0-1.120","MAGA","1","f","rechts","24","","","self","j","150","true"
"null","<div style=""font-size:60px;"">+</div>","null","html-keyboard-response","248","198868","0.0-6.0-0.121","MAGA","1","f","rechts","24","","fixation","","","",""
"1066","img/90_300.png","70","image-keyboard-response","249","199936","0.0-6.0-1.121","MAGA","1","f","rechts","24","","","self","f","90","true"
"null","<div style=""font-size:60px;"">+</div>","null","html-keyboard-response","250","200287","0.0-6.0-0.122","MAGA","1","f","rechts","24","","fixation","","","",""
"1477","img/30_90.png","74","image-keyboard-response","251","201765","0.0-6.0-1.122","MAGA","1","f","rechts","24","","","self","j","30","true"
"null","<div style=""font-size:60px;"">+</div>","null","html-keyboard-response","252","202216","0.0-6.0-0.123","MAGA","1","f","rechts","24","","fixation","","","",""
"709","img/0_300.png","70","image-keyboard-response","253","202927","0.0-6.0-1.123","MAGA","1","f","rechts","24","","","self","f","0","true"
"null","<div style=""font-size:60px;"">+</div>","null","html-keyboard-response","254","203328","0.0-6.0-0.124","MAGA","1","f","rechts","24","","fixation","","","",""
"800","img/30_120.png","74","image-keyboard-response","255","204129","0.0-6.0-1.124","MAGA","1","f","rechts","24","","","self","j","30","true"
"null","<div style=""font-size:60px;"">+</div>","null","html-keyboard-response","256","204531","0.0-6.0-0.125","MAGA","1","f","rechts","24","","fixation","","","",""
"791","img/90_150.png","70","image-keyboard-response","257","205323","0.0-6.0-1.125","MAGA","1","f","rechts","24","","","self","f","90","true"
"null","<div style=""font-size:60px;"">+</div>","null","html-keyboard-response","258","205825","0.0-6.0-0.126","MAGA","1","f","rechts","24","","fixation","","","",""
"742","img/30_240.png","70","image-keyboard-response","259","206569","0.0-6.0-1.126","MAGA","1","f","rechts","24","","","self","f","30","true"
"null","<div style=""font-size:60px;"">+</div>","null","html-keyboard-response","260","206870","0.0-6.0-0.127","MAGA","1","f","rechts","24","","fixation","","","",""
"801","img/120_180.png","74","image-keyboard-response","261","207673","0.0-6.0-1.127","MAGA","1","f","rechts","24","","","self","j","120","true"
"null","<div style=""font-size:60px;"">+</div>","null","html-keyboard-response","262","208024","0.0-6.0-0.128","MAGA","1","f","rechts","24","","fixation","","","",""
"902","img/0_210.png","70","image-keyboard-response","263","208927","0.0-6.0-1.128","MAGA","1","f","rechts","24","","","self","f","0","true"
"null","<div style=""font-size:60px;"">+</div>","null","html-keyboard-response","264","209429","0.0-6.0-0.129","MAGA","1","f","rechts","24","","fixation","","","",""
"987","img/60_150.png","70","image-keyboard-response","265","210418","0.0-6.0-1.129","MAGA","1","f","rechts","24","","","self","f","60","true"
"null","<div style=""font-size:60px;"">+</div>","null","html-keyboard-response","266","210918","0.0-6.0-0.130","MAGA","1","f","rechts","24","","fixation","","","",""
"940","img/60_30.png","70","image-keyboard-response","267","211859","0.0-6.0-1.130","MAGA","1","f","rechts","24","","","self","j","60","false"
"null","<div style=""font-size:60px;"">+</div>","null","html-keyboard-response","268","212161","0.0-6.0-0.131","MAGA","1","f","rechts","24","","fixation","","","",""
"948","img/L150_180.png","70","image-keyboard-response","269","213110","0.0-6.0-1.131","MAGA","1","f","rechts","24","","","self","f","150","true"
"null","<div style=""font-size:60px;"">+</div>","null","html-keyboard-response","270","213562","0.0-6.0-0.132","MAGA","1","f","rechts","24","","fixation","","","",""
"954","img/120_150.png","70","image-keyboard-response","271","214517","0.0-6.0-1.132","MAGA","1","f","rechts","24","","","self","f","120","true"
"null","<div style=""font-size:60px;"">+</div>","null","html-keyboard-response","272","214919","0.0-6.0-0.133","MAGA","1","f","rechts","24","","fixation","","","",""
"806","img/90_210.png","74","image-keyboard-response","273","215727","0.0-6.0-1.133","MAGA","1","f","rechts","24","","","self","j","90","true"
"null","<div style=""font-size:60px;"">+</div>","null","html-keyboard-response","274","216228","0.0-6.0-0.134","MAGA","1","f","rechts","24","","fixation","","","",""
"939","img/90_30.png","74","image-keyboard-response","275","217168","0.0-6.0-1.134","MAGA","1","f","rechts","24","","","self","j","90","true"
"null","<div style=""font-size:60px;"">+</div>","null","html-keyboard-response","276","217570","0.0-6.0-0.135","MAGA","1","f","rechts","24","","fixation","","","",""
"1076","img/0_120.png","74","image-keyboard-response","277","218647","0.0-6.0-1.135","MAGA","1","f","rechts","24","","","self","j","0","true"
"null","<div style=""font-size:60px;"">+</div>","null","html-keyboard-response","278","218999","0.0-6.0-0.136","MAGA","1","f","rechts","24","","fixation","","","",""
"876","img/L30_180.png","70","image-keyboard-response","279","219875","0.0-6.0-1.136","MAGA","1","f","rechts","24","","","self","f","30","true"
"null","<div style=""font-size:60px;"">+</div>","null","html-keyboard-response","280","220277","0.0-6.0-0.137","MAGA","1","f","rechts","24","","fixation","","","",""
"833","img/60_180.png","74","image-keyboard-response","281","221111","0.0-6.0-1.137","MAGA","1","f","rechts","24","","","self","j","60","true"
"null","<div style=""font-size:60px;"">+</div>","null","html-keyboard-response","282","221513","0.0-6.0-0.138","MAGA","1","f","rechts","24","","fixation","","","",""
"855","img/150_270.png","74","image-keyboard-response","283","222368","0.0-6.0-1.138","MAGA","1","f","rechts","24","","","self","j","150","true"
"null","<div style=""font-size:60px;"">+</div>","null","html-keyboard-response","284","222820","0.0-6.0-0.139","MAGA","1","f","rechts","24","","fixation","","","",""
"804","img/0_30.png","74","image-keyboard-response","285","223625","0.0-6.0-1.139","MAGA","1","f","rechts","24","","","self","j","0","true"
"null","<div style=""font-size:60px;"">+</div>","null","html-keyboard-response","286","224027","0.0-6.0-0.140","MAGA","1","f","rechts","24","","fixation","","","",""
"704","img/30_60.png","74","image-keyboard-response","287","224732","0.0-6.0-1.140","MAGA","1","f","rechts","24","","","self","j","30","true"
"null","<div style=""font-size:60px;"">+</div>","null","html-keyboard-response","288","225234","0.0-6.0-0.141","MAGA","1","f","rechts","24","","fixation","","","",""
"790","img/30_180.png","74","image-keyboard-response","289","226024","0.0-6.0-1.141","MAGA","1","f","rechts","24","","","self","j","30","true"
"null","<div style=""font-size:60px;"">+</div>","null","html-keyboard-response","290","226376","0.0-6.0-0.142","MAGA","1","f","rechts","24","","fixation","","","",""
"906","img/L90_180.png","70","image-keyboard-response","291","227282","0.0-6.0-1.142","MAGA","1","f","rechts","24","","","self","f","90","true"
"null","<div style=""font-size:60px;"">+</div>","null","html-keyboard-response","292","227634","0.0-6.0-0.143","MAGA","1","f","rechts","24","","fixation","","","",""
"692","img/150_180.png","74","image-keyboard-response","293","228327","0.0-6.0-1.143","MAGA","1","f","rechts","24","","","self","j","150","true"
"null","<div style=""font-size:60px;"">+</div>","null","html-keyboard-response","294","228679","0.0-6.0-0.144","MAGA","1","f","rechts","24","","fixation","","","",""
"910","img/90_120.png","70","image-keyboard-response","295","229589","0.0-6.0-1.144","MAGA","1","f","rechts","24","","","self","f","90","true"
"null","<div style=""font-size:60px;"">+</div>","null","html-keyboard-response","296","230091","0.0-6.0-0.145","MAGA","1","f","rechts","24","","fixation","","","",""
"851","img/60_210.png","74","image-keyboard-response","297","230943","0.0-6.0-1.145","MAGA","1","f","rechts","24","","","self","j","60","true"
"null","<div style=""font-size:60px;"">+</div>","null","html-keyboard-response","298","231244","0.0-6.0-0.146","MAGA","1","f","rechts","24","","fixation","","","",""
"975","img/120_30.png","70","image-keyboard-response","299","232219","0.0-6.0-1.146","MAGA","1","f","rechts","24","","","self","j","120","false"
"null","<div style=""font-size:60px;"">+</div>","null","html-keyboard-response","300","232671","0.0-6.0-0.147","MAGA","1","f","rechts","24","","fixation","","","",""
"780","img/0_330.png","70","image-keyboard-response","301","233451","0.0-6.0-1.147","MAGA","1","f","rechts","24","","","self","f","0","true"
"null","<div style=""font-size:60px;"">+</div>","null","html-keyboard-response","302","233753","0.0-6.0-0.148","MAGA","1","f","rechts","24","","fixation","","","",""
"1189","img/30_270.png","70","image-keyboard-response","303","234942","0.0-6.0-1.148","MAGA","1","f","rechts","24","","","self","f","30","true"
"null","<div style=""font-size:60px;"">+</div>","null","html-keyboard-response","304","235344","0.0-6.0-0.149","MAGA","1","f","rechts","24","","fixation","","","",""
"855","img/0_240.png","70","image-keyboard-response","305","236199","0.0-6.0-1.149","MAGA","1","f","rechts","24","","","self","f","0","true"
"null","<div style=""font-size:60px;"">+</div>","null","html-keyboard-response","306","236600","0.0-6.0-0.150","MAGA","1","f","rechts","24","","fixation","","","",""
"1067","img/120_90.png","70","image-keyboard-response","307","237668","0.0-6.0-1.150","MAGA","1","f","rechts","24","","","self","f","120","true"
"null","<div style=""font-size:60px;"">+</div>","null","html-keyboard-response","308","238120","0.0-6.0-0.151","MAGA","1","f","rechts","24","","fixation","","","",""
"1066","img/150_60.png","70","image-keyboard-response","309","239186","0.0-6.0-1.151","MAGA","1","f","rechts","24","","","self","f","150","true"
"null","<div style=""font-size:60px;"">+</div>","null","html-keyboard-response","310","239638","0.0-6.0-0.152","MAGA","1","f","rechts","24","","fixation","","","",""
"1079","img/60_270.png","70","image-keyboard-response","311","240717","0.0-6.0-1.152","MAGA","1","f","rechts","24","","","self","f","60","true"
"null","<div style=""font-size:60px;"">+</div>","null","html-keyboard-response","312","241219","0.0-6.0-0.153","MAGA","1","f","rechts","24","","fixation","","","",""
"862","img/L120_180.png","70","image-keyboard-response","313","242082","0.0-6.0-1.153","MAGA","1","f","rechts","24","","","self","f","120","true"
"null","<div style=""font-size:60px;"">+</div>","null","html-keyboard-response","314","242583","0.0-6.0-0.154","MAGA","1","f","rechts","24","","fixation","","","",""
"954","img/120_330.png","74","image-keyboard-response","315","243538","0.0-6.0-1.154","MAGA","1","f","rechts","24","","","self","f","120","false"
"null","<div style=""font-size:60px;"">+</div>","null","html-keyboard-response","316","243840","0.0-6.0-0.155","MAGA","1","f","rechts","24","","fixation","","","",""
"989","img/90_240.png","74","image-keyboard-response","317","244829","0.0-6.0-1.155","MAGA","1","f","rechts","24","","","self","j","90","true"
"null","<div style=""font-size:60px;"">+</div>","null","html-keyboard-response","318","245131","0.0-6.0-0.156","MAGA","1","f","rechts","24","","fixation","","","",""
"974","img/120_330.png","74","image-keyboard-response","319","246105","0.0-6.0-1.156","MAGA","1","f","rechts","24","","","self","f","120","false"
"null","<div style=""font-size:60px;"">+</div>","null","html-keyboard-response","320","246606","0.0-6.0-0.157","MAGA","1","f","rechts","24","","fixation","","","",""
"789","img/0_150.png","74","image-keyboard-response","321","247396","0.0-6.0-1.157","MAGA","1","f","rechts","24","","","self","j","0","true"
"null","<div style=""font-size:60px;"">+</div>","null","html-keyboard-response","322","247897","0.0-6.0-0.158","MAGA","1","f","rechts","24","","fixation","","","",""
"849","img/90_120.png","70","image-keyboard-response","323","248748","0.0-6.0-1.158","MAGA","1","f","rechts","24","","","self","f","90","true"
"null","<div style=""font-size:60px;"">+</div>","null","html-keyboard-response","324","249199","0.0-6.0-0.159","MAGA","1","f","rechts","24","","fixation","","","",""
"906","img/150_270.png","74","image-keyboard-response","325","250107","0.0-6.0-1.159","MAGA","1","f","rechts","24","","","self","j","150","true"
"null","<div style=""font-size:60px;"">+</div>","null","html-keyboard-response","326","250408","0.0-6.0-0.160","MAGA","1","f","rechts","24","","fixation","","","",""
"658","img/0_30.png","74","image-keyboard-response","327","251068","0.0-6.0-1.160","MAGA","1","f","rechts","24","","","self","j","0","true"
"null","<div style=""font-size:60px;"">+</div>","null","html-keyboard-response","328","251569","0.0-6.0-0.161","MAGA","1","f","rechts","24","","fixation","","","",""
"780","img/L30_180.png","70","image-keyboard-response","329","252351","0.0-6.0-1.161","MAGA","1","f","rechts","24","","","self","f","30","true"
"null","<div style=""font-size:60px;"">+</div>","null","html-keyboard-response","330","252802","0.0-6.0-0.162","MAGA","1","f","rechts","24","","fixation","","","",""
"823","img/90_210.png","74","image-keyboard-response","331","253627","0.0-6.0-1.162","MAGA","1","f","rechts","24","","","self","j","90","true"
"null","<div style=""font-size:60px;"">+</div>","null","html-keyboard-response","332","254028","0.0-6.0-0.163","MAGA","1","f","rechts","24","","fixation","","","",""
"762","img/0_240.png","70","image-keyboard-response","333","254791","0.0-6.0-1.163","MAGA","1","f","rechts","24","","","self","f","0","true"
"null","<div style=""font-size:60px;"">+</div>","null","html-keyboard-response","334","255093","0.0-6.0-0.164","MAGA","1","f","rechts","24","","fixation","","","",""
"997","img/60_90.png","74","image-keyboard-response","335","256092","0.0-6.0-1.164","MAGA","1","f","rechts","24","","","self","j","60","true"
"null","<div style=""font-size:60px;"">+</div>","null","html-keyboard-response","336","256493","0.0-6.0-0.165","MAGA","1","f","rechts","24","","fixation","","","",""
"764","img/60_270.png","70","image-keyboard-response","337","257258","0.0-6.0-1.165","MAGA","1","f","rechts","24","","","self","f","60","true"
"null","<div style=""font-size:60px;"">+</div>","null","html-keyboard-response","338","257660","0.0-6.0-0.166","MAGA","1","f","rechts","24","","fixation","","","",""
"820","img/30_90.png","74","image-keyboard-response","339","258481","0.0-6.0-1.166","MAGA","1","f","rechts","24","","","self","j","30","true"
"null","<div style=""font-size:60px;"">+</div>","null","html-keyboard-response","340","258883","0.0-6.0-0.167","MAGA","1","f","rechts","24","","fixation","","","",""
"862","img/150_90.png","70","image-keyboard-response","341","259746","0.0-6.0-1.167","MAGA","1","f","rechts","24","","","self","f","150","true"
"null","<div style=""font-size:60px;"">+</div>","null","html-keyboard-response","342","260047","0.0-6.0-0.168","MAGA","1","f","rechts","24","","fixation","","","",""
"640","img/L120_180.png","70","image-keyboard-response","343","260688","0.0-6.0-1.168","MAGA","1","f","rechts","24","","","self","f","120","true"
"null","<div style=""font-size:60px;"">+</div>","null","html-keyboard-response","344","261090","0.0-6.0-0.169","MAGA","1","f","rechts","24","","fixation","","","",""
"874","img/150_60.png","70","image-keyboard-response","345","261965","0.0-6.0-1.169","MAGA","1","f","rechts","24","","","self","f","150","true"
"null","<div style=""font-size:60px;"">+</div>","null","html-keyboard-response","346","262367","0.0-6.0-0.170","MAGA","1","f","rechts","24","","fixation","","","",""
"657","img/30_60.png","74","image-keyboard-response","347","263025","0.0-6.0-1.170","MAGA","1","f","rechts","24","","","self","j","30","true"
"null","<div style=""font-size:60px;"">+</div>","null","html-keyboard-response","348","263327","0.0-6.0-0.171","MAGA","1","f","rechts","24","","fixation","","","",""
"805","img/60_150.png","70","image-keyboard-response","349","264133","0.0-6.0-1.171","MAGA","1","f","rechts","24","","","self","f","60","true"
"null","<div style=""font-size:60px;"">+</div>","null","html-keyboard-response","350","264535","0.0-6.0-0.172","MAGA","1","f","rechts","24","","fixation","","","",""
"630","img/L150_180.png","70","image-keyboard-response","351","265166","0.0-6.0-1.172","MAGA","1","f","rechts","24","","","self","f","150","true"
"null","<div style=""font-size:60px;"">+</div>","null","html-keyboard-response","352","265618","0.0-6.0-0.173","MAGA","1","f","rechts","24","","fixation","","","",""
"784","img/90_30.png","74","image-keyboard-response","353","266403","0.0-6.0-1.173","MAGA","1","f","rechts","24","","","self","j","90","true"
"null","<div style=""font-size:60px;"">+</div>","null","html-keyboard-response","354","266905","0.0-6.0-0.174","MAGA","1","f","rechts","24","","fixation","","","",""
"635","img/L60_180.png","70","image-keyboard-response","355","267541","0.0-6.0-1.174","MAGA","1","f","rechts","24","","","self","f","60","true"
"null","<div style=""font-size:60px;"">+</div>","null","html-keyboard-response","356","268042","0.0-6.0-0.175","MAGA","1","f","rechts","24","","fixation","","","",""
"654","img/60_210.png","74","image-keyboard-response","357","268697","0.0-6.0-1.175","MAGA","1","f","rechts","24","","","self","j","60","true"
"null","<div style=""font-size:60px;"">+</div>","null","html-keyboard-response","358","269099","0.0-6.0-0.176","MAGA","1","f","rechts","24","","fixation","","","",""
"624","img/30_300.png","70","image-keyboard-response","359","269723","0.0-6.0-1.176","MAGA","1","f","rechts","24","","","self","f","30","true"
"null","<div style=""font-size:60px;"">+</div>","null","html-keyboard-response","360","270175","0.0-6.0-0.177","MAGA","1","f","rechts","24","","fixation","","","",""
"797","img/120_30.png","74","image-keyboard-response","361","270973","0.0-6.0-1.177","MAGA","1","f","rechts","24","","","self","j","120","true"
"null","<div style=""font-size:60px;"">+</div>","null","html-keyboard-response","362","271425","0.0-6.0-0.178","MAGA","1","f","rechts","24","","fixation","","","",""
"813","img/90_330.png","70","image-keyboard-response","363","272239","0.0-6.0-1.178","MAGA","1","f","rechts","24","","","self","f","90","true"
"null","<div style=""font-size:60px;"">+</div>","null","html-keyboard-response","364","272591","0.0-6.0-0.179","MAGA","1","f","rechts","24","","fixation","","","",""
"705","img/0_120.png","74","image-keyboard-response","365","273297","0.0-6.0-1.179","MAGA","1","f","rechts","24","","","self","j","0","true"
"null","<div style=""font-size:60px;"">+</div>","null","html-keyboard-response","366","273749","0.0-6.0-0.180","MAGA","1","f","rechts","24","","fixation","","","",""
"869","img/0_270.png","70","image-keyboard-response","367","274618","0.0-6.0-1.180","MAGA","1","f","rechts","24","","","self","f","0","true"
"null","<div style=""font-size:60px;"">+</div>","null","html-keyboard-response","368","275120","0.0-6.0-0.181","MAGA","1","f","rechts","24","","fixation","","","",""
"1082","img/90_150.png","70","image-keyboard-response","369","276202","0.0-6.0-1.181","MAGA","1","f","rechts","24","","","self","f","90","true"
"null","<div style=""font-size:60px;"">+</div>","null","html-keyboard-response","370","276504","0.0-6.0-0.182","MAGA","1","f","rechts","24","","fixation","","","",""
"997","img/150_240.png","74","image-keyboard-response","371","277501","0.0-6.0-1.182","MAGA","1","f","rechts","24","","","self","j","150","true"
"null","<div style=""font-size:60px;"">+</div>","null","html-keyboard-response","372","277853","0.0-6.0-0.183","MAGA","1","f","rechts","24","","fixation","","","",""
"678","img/L90_180.png","70","image-keyboard-response","373","278532","0.0-6.0-1.183","MAGA","1","f","rechts","24","","","self","f","90","true"
"null","<div style=""font-size:60px;"">+</div>","null","html-keyboard-response","374","278934","0.0-6.0-0.184","MAGA","1","f","rechts","24","","fixation","","","",""
"947","img/120_90.png","70","image-keyboard-response","375","279882","0.0-6.0-1.184","MAGA","1","f","rechts","24","","","self","f","120","true"
"null","<div style=""font-size:60px;"">+</div>","null","html-keyboard-response","376","280384","0.0-6.0-0.185","MAGA","1","f","rechts","24","","fixation","","","",""
"865","img/120_180.png","74","image-keyboard-response","377","281249","0.0-6.0-1.185","MAGA","1","f","rechts","24","","","self","j","120","true"
"null","<div style=""font-size:60px;"">+</div>","null","html-keyboard-response","378","281701","0.0-6.0-0.186","MAGA","1","f","rechts","24","","fixation","","","",""
"638","img/150_180.png","74","image-keyboard-response","379","282339","0.0-6.0-1.186","MAGA","1","f","rechts","24","","","self","j","150","true"
"null","<div style=""font-size:60px;"">+</div>","null","html-keyboard-response","380","282791","0.0-6.0-0.187","MAGA","1","f","rechts","24","","fixation","","","",""
"1012","img/90_300.png","70","image-keyboard-response","381","283803","0.0-6.0-1.187","MAGA","1","f","rechts","24","","","self","f","90","true"
"null","<div style=""font-size:60px;"">+</div>","null","html-keyboard-response","382","284154","0.0-6.0-0.188","MAGA","1","f","rechts","24","","fixation","","","",""
"727","img/60_330.png","70","image-keyboard-response","383","284882","0.0-6.0-1.188","MAGA","1","f","rechts","24","","","self","f","60","true"
"null","<div style=""font-size:60px;"">+</div>","null","html-keyboard-response","384","285332","0.0-6.0-0.189","MAGA","1","f","rechts","24","","fixation","","","",""
"649","img/0_90.png","74","image-keyboard-response","385","285982","0.0-6.0-1.189","MAGA","1","f","rechts","24","","","self","j","0","true"
"null","<div style=""font-size:60px;"">+</div>","null","html-keyboard-response","386","286484","0.0-6.0-0.190","MAGA","1","f","rechts","24","","fixation","","","",""
"752","img/30_270.png","70","image-keyboard-response","387","287236","0.0-6.0-1.190","MAGA","1","f","rechts","24","","","self","f","30","true"
"null","<div style=""font-size:60px;"">+</div>","null","html-keyboard-response","388","287538","0.0-6.0-0.191","MAGA","1","f","rechts","24","","fixation","","","",""
"965","img/150_300.png","74","image-keyboard-response","389","288503","0.0-6.0-1.191","MAGA","1","f","rechts","24","","","self","j","150","true"
"null","<div style=""font-size:60px;"">+</div>","null","html-keyboard-response","390","288855","0.0-6.0-0.192","MAGA","1","f","rechts","24","","fixation","","","",""
"874","img/150_120.png","70","image-keyboard-response","391","289729","0.0-6.0-1.192","MAGA","1","f","rechts","24","","","self","f","150","true"
"null","<div style=""font-size:60px;"">+</div>","null","html-keyboard-response","392","290081","0.0-6.0-0.193","MAGA","1","f","rechts","24","","fixation","","","",""
"1360","img/30_240.png","70","image-keyboard-response","393","291441","0.0-6.0-1.193","MAGA","1","f","rechts","24","","","self","f","30","true"
"null","<div style=""font-size:60px;"">+</div>","null","html-keyboard-response","394","291843","0.0-6.0-0.194","MAGA","1","f","rechts","24","","fixation","","","",""
"726","img/120_150.png","70","image-keyboard-response","395","292569","0.0-6.0-1.194","MAGA","1","f","rechts","24","","","self","f","120","true"
"null","<div style=""font-size:60px;"">+</div>","null","html-keyboard-response","396","293070","0.0-6.0-0.195","MAGA","1","f","rechts","24","","fixation","","","",""
"893","img/90_240.png","74","image-keyboard-response","397","293964","0.0-6.0-1.195","MAGA","1","f","rechts","24","","","self","j","90","true"
"null","<div style=""font-size:60px;"">+</div>","null","html-keyboard-response","398","294415","0.0-6.0-0.196","MAGA","1","f","rechts","24","","fixation","","","",""
"705","img/90_180.png","74","image-keyboard-response","399","295121","0.0-6.0-1.196","MAGA","1","f","rechts","24","","","self","j","90","true"
"null","<div style=""font-size:60px;"">+</div>","null","html-keyboard-response","400","295573","0.0-6.0-0.197","MAGA","1","f","rechts","24","","fixation","","","",""
"1103","img/30_120.png","74","image-keyboard-response","401","296677","0.0-6.0-1.197","MAGA","1","f","rechts","24","","","self","j","30","true"
"null","<div style=""font-size:60px;"">+</div>","null","html-keyboard-response","402","297178","0.0-6.0-0.198","MAGA","1","f","rechts","24","","fixation","","","",""
"807","img/120_210.png","74","image-keyboard-response","403","297987","0.0-6.0-1.198","MAGA","1","f","rechts","24","","","self","j","120","true"
"null","<div style=""font-size:60px;"">+</div>","null","html-keyboard-response","404","298439","0.0-6.0-0.199","MAGA","1","f","rechts","24","","fixation","","","",""
"696","img/0_300.png","70","image-keyboard-response","405","299135","0.0-6.0-1.199","MAGA","1","f","rechts","24","","","self","f","0","true"
"null","<div style=""font-size:60px;"">+</div>","null","html-keyboard-response","406","299637","0.0-6.0-0.200","MAGA","1","f","rechts","24","","fixation","","","",""
"748","img/0_60.png","74","image-keyboard-response","407","300385","0.0-6.0-1.200","MAGA","1","f","rechts","24","","","self","j","0","true"
"null","<div style=""font-size:60px;"">+</div>","null","html-keyboard-response","408","300836","0.0-6.0-0.201","MAGA","1","f","rechts","24","","fixation","","","",""
"917","img/30_180.png","74","image-keyboard-response","409","301754","0.0-6.0-1.201","MAGA","1","f","rechts","24","","","self","j","30","true"
"null","<div style=""font-size:60px;"">+</div>","null","html-keyboard-response","410","302105","0.0-6.0-0.202","MAGA","1","f","rechts","24","","fixation","","","",""
"706","img/0_330.png","70","image-keyboard-response","411","302813","0.0-6.0-1.202","MAGA","1","f","rechts","24","","","self","f","0","true"
"null","<div style=""font-size:60px;"">+</div>","null","html-keyboard-response","412","303264","0.0-6.0-0.203","MAGA","1","f","rechts","24","","fixation","","","",""
"1201","img/90_60.png","74","image-keyboard-response","413","304466","0.0-6.0-1.203","MAGA","1","f","rechts","24","","","self","j","90","true"
"null","<div style=""font-size:60px;"">+</div>","null","html-keyboard-response","414","304767","0.0-6.0-0.204","MAGA","1","f","rechts","24","","fixation","","","",""
"948","img/60_180.png","74","image-keyboard-response","415","305716","0.0-6.0-1.204","MAGA","1","f","rechts","24","","","self","j","60","true"
"null","<div style=""font-size:60px;"">+</div>","null","html-keyboard-response","416","306167","0.0-6.0-0.205","MAGA","1","f","rechts","24","","fixation","","","",""
"1081","img/120_270.png","74","image-keyboard-response","417","307249","0.0-6.0-1.205","MAGA","1","f","rechts","24","","","self","j","120","true"
"null","<div style=""font-size:60px;"">+</div>","null","html-keyboard-response","418","307601","0.0-6.0-0.206","MAGA","1","f","rechts","24","","fixation","","","",""
"876","img/0_210.png","70","image-keyboard-response","419","308479","0.0-6.0-1.206","MAGA","1","f","rechts","24","","","self","f","0","true"
"null","<div style=""font-size:60px;"">+</div>","null","html-keyboard-response","420","308980","0.0-6.0-0.207","MAGA","1","f","rechts","24","","fixation","","","",""
"783","img/60_30.png","74","image-keyboard-response","421","309764","0.0-6.0-1.207","MAGA","1","f","rechts","24","","","self","j","60","true"
"21668","<p>Du hast in 91% der Versuche korrekt entschieden.</p><p>Deine durchschnittliche Reaktionszeit war  808ms.</p><p>Dr&uuml;cke eine beliebige Taste, um die Session zu beenden. Vielen Dank!</p>","71","html-keyboard-response","422","331434","0.0-7.0","MAGA","1","f","rechts","24","","","","","",""
