"rt","stimulus","key_press","trial_type","trial_index","time_elapsed","internal_node_id","subject","session","sex","handedness","age","responses","test_part","condition","correct_response","angle","correct"
"1093","<p>Mental Rotation Experiment.</p> <p>Dr&uuml;cke eine beliebige Taste, um anzufangen.</p>","72","html-keyboard-response","0","1097","0.0-0.0","MAGA","4","f","rechts","24","","","","","",""
"3662","","","survey-text","1","4761","0.0-1.0","MAGA","4","f","rechts","24","{""Q0"":""MAGA""}","","","","",""
"2544","","","survey-text","2","7305","0.0-2.0","MAGA","4","f","rechts","24","{""Q0"":""4""}","","","","",""
"3834","","","survey-multi-choice","3","11141","0.0-3.0","MAGA","4","f","rechts","24","{""Q0"":""f"",""Q1"":""rechts""}","","","","",""
"3762","","","survey-text","4","14904","0.0-4.0","MAGA","4","f","rechts","24","{""Q0"":""24""}","","","","",""
"364669","<p> Stell dir vor, dass du vor einem runden Tisch stehst, auf dem sich ein blauer Ball am Tischrand befindet. Entlang des Tischrands ist jeweils ein verschieden langer Pfeil. Nun bewegst du dich entlang dieses Pfeils bis an seine Spitze. Wenn du am Ende des Pfeils angekommen bist, schau zur Tischmitte. </p> <img src='img/90_180.png'></img> <br> <p>Entscheide dann, ob der Ball von deiner neuen (vorgestellten) Position links oder rechts von dir liegt.</p> <p>Dr&uuml;cke die <strong>'f'</strong>-Taste f&uuml;r links, die <strong>'j'</strong>-Taste f&uuml;r rechts.</p> <br><p> Das Bild wird jeweils 1 Sekunde lang pr&auml;sentiert. Du hast 3 Sekunden Zeit eine Entscheidung zu treffen.</p>","74","html-keyboard-response","5","379577","0.0-5.0","MAGA","4","f","rechts","24","","","","","",""
"null","<div style=""font-size:60px;"">+</div>","null","html-keyboard-response","6","380930","0.0-6.0-0.0","MAGA","4","f","rechts","24","","fixation","","","",""
"786","img/150_300.png","74","image-keyboard-response","7","381718","0.0-6.0-1.0","MAGA","4","f","rechts","24","","","self","j","150","true"
"null","<div style=""font-size:60px;"">+</div>","null","html-keyboard-response","8","382220","0.0-6.0-0.1","MAGA","4","f","rechts","24","","fixation","","","",""
"702","img/120_150.png","70","image-keyboard-response","9","382923","0.0-6.0-1.1","MAGA","4","f","rechts","24","","","self","f","120","true"
"null","<div style=""font-size:60px;"">+</div>","null","html-keyboard-response","10","383374","0.0-6.0-0.2","MAGA","4","f","rechts","24","","fixation","","","",""
"723","img/30_120.png","74","image-keyboard-response","11","384098","0.0-6.0-1.2","MAGA","4","f","rechts","24","","","self","j","30","true"
"null","<div style=""font-size:60px;"">+</div>","null","html-keyboard-response","12","384600","0.0-6.0-0.3","MAGA","4","f","rechts","24","","fixation","","","",""
"582","img/L60_180.png","70","image-keyboard-response","13","385183","0.0-6.0-1.3","MAGA","4","f","rechts","24","","","self","f","60","true"
"null","<div style=""font-size:60px;"">+</div>","null","html-keyboard-response","14","385535","0.0-6.0-0.4","MAGA","4","f","rechts","24","","fixation","","","",""
"704","img/150_120.png","70","image-keyboard-response","15","386240","0.0-6.0-1.4","MAGA","4","f","rechts","24","","","self","f","150","true"
"null","<div style=""font-size:60px;"">+</div>","null","html-keyboard-response","16","386542","0.0-6.0-0.5","MAGA","4","f","rechts","24","","fixation","","","",""
"730","img/60_150.png","70","image-keyboard-response","17","387273","0.0-6.0-1.5","MAGA","4","f","rechts","24","","","self","f","60","true"
"null","<div style=""font-size:60px;"">+</div>","null","html-keyboard-response","18","387625","0.0-6.0-0.6","MAGA","4","f","rechts","24","","fixation","","","",""
"653","img/120_270.png","74","image-keyboard-response","19","388279","0.0-6.0-1.6","MAGA","4","f","rechts","24","","","self","j","120","true"
"null","<div style=""font-size:60px;"">+</div>","null","html-keyboard-response","20","388681","0.0-6.0-0.7","MAGA","4","f","rechts","24","","fixation","","","",""
"586","img/150_180.png","74","image-keyboard-response","21","389268","0.0-6.0-1.7","MAGA","4","f","rechts","24","","","self","j","150","true"
"null","<div style=""font-size:60px;"">+</div>","null","html-keyboard-response","22","389720","0.0-6.0-0.8","MAGA","4","f","rechts","24","","fixation","","","",""
"599","img/L90_180.png","70","image-keyboard-response","23","390320","0.0-6.0-1.8","MAGA","4","f","rechts","24","","","self","f","90","true"
"null","<div style=""font-size:60px;"">+</div>","null","html-keyboard-response","24","390622","0.0-6.0-0.9","MAGA","4","f","rechts","24","","fixation","","","",""
"714","img/90_60.png","74","image-keyboard-response","25","391337","0.0-6.0-1.9","MAGA","4","f","rechts","24","","","self","j","90","true"
"null","<div style=""font-size:60px;"">+</div>","null","html-keyboard-response","26","391688","0.0-6.0-0.10","MAGA","4","f","rechts","24","","fixation","","","",""
"566","img/L150_180.png","70","image-keyboard-response","27","392255","0.0-6.0-1.10","MAGA","4","f","rechts","24","","","self","f","150","true"
"null","<div style=""font-size:60px;"">+</div>","null","html-keyboard-response","28","392607","0.0-6.0-0.11","MAGA","4","f","rechts","24","","fixation","","","",""
"614","img/90_180.png","74","image-keyboard-response","29","393222","0.0-6.0-1.11","MAGA","4","f","rechts","24","","","self","j","90","true"
"null","<div style=""font-size:60px;"">+</div>","null","html-keyboard-response","30","393574","0.0-6.0-0.12","MAGA","4","f","rechts","24","","fixation","","","",""
"895","img/90_300.png","70","image-keyboard-response","31","394469","0.0-6.0-1.12","MAGA","4","f","rechts","24","","","self","f","90","true"
"null","<div style=""font-size:60px;"">+</div>","null","html-keyboard-response","32","394971","0.0-6.0-0.13","MAGA","4","f","rechts","24","","fixation","","","",""
"588","img/120_210.png","74","image-keyboard-response","33","395560","0.0-6.0-1.13","MAGA","4","f","rechts","24","","","self","j","120","true"
"null","<div style=""font-size:60px;"">+</div>","null","html-keyboard-response","34","395862","0.0-6.0-0.14","MAGA","4","f","rechts","24","","fixation","","","",""
"555","img/120_180.png","74","image-keyboard-response","35","396417","0.0-6.0-1.14","MAGA","4","f","rechts","24","","","self","j","120","true"
"null","<div style=""font-size:60px;"">+</div>","null","html-keyboard-response","36","396819","0.0-6.0-0.15","MAGA","4","f","rechts","24","","fixation","","","",""
"523","img/60_90.png","74","image-keyboard-response","37","397343","0.0-6.0-1.15","MAGA","4","f","rechts","24","","","self","j","60","true"
"null","<div style=""font-size:60px;"">+</div>","null","html-keyboard-response","38","397795","0.0-6.0-0.16","MAGA","4","f","rechts","24","","fixation","","","",""
"510","img/90_210.png","74","image-keyboard-response","39","398306","0.0-6.0-1.16","MAGA","4","f","rechts","24","","","self","j","90","true"
"null","<div style=""font-size:60px;"">+</div>","null","html-keyboard-response","40","398757","0.0-6.0-0.17","MAGA","4","f","rechts","24","","fixation","","","",""
"589","img/0_300.png","70","image-keyboard-response","41","399346","0.0-6.0-1.17","MAGA","4","f","rechts","24","","","self","f","0","true"
"null","<div style=""font-size:60px;"">+</div>","null","html-keyboard-response","42","399748","0.0-6.0-0.18","MAGA","4","f","rechts","24","","fixation","","","",""
"646","img/150_60.png","70","image-keyboard-response","43","400394","0.0-6.0-1.18","MAGA","4","f","rechts","24","","","self","f","150","true"
"null","<div style=""font-size:60px;"">+</div>","null","html-keyboard-response","44","400696","0.0-6.0-0.19","MAGA","4","f","rechts","24","","fixation","","","",""
"671","img/90_240.png","74","image-keyboard-response","45","401369","0.0-6.0-1.19","MAGA","4","f","rechts","24","","","self","j","90","true"
"null","<div style=""font-size:60px;"">+</div>","null","html-keyboard-response","46","401720","0.0-6.0-0.20","MAGA","4","f","rechts","24","","fixation","","","",""
"649","img/90_330.png","70","image-keyboard-response","47","402370","0.0-6.0-1.20","MAGA","4","f","rechts","24","","","self","f","90","true"
"null","<div style=""font-size:60px;"">+</div>","null","html-keyboard-response","48","402822","0.0-6.0-0.21","MAGA","4","f","rechts","24","","fixation","","","",""
"543","img/0_330.png","70","image-keyboard-response","49","403365","0.0-6.0-1.21","MAGA","4","f","rechts","24","","","self","f","0","true"
"null","<div style=""font-size:60px;"">+</div>","null","html-keyboard-response","50","403817","0.0-6.0-0.22","MAGA","4","f","rechts","24","","fixation","","","",""
"662","img/L30_180.png","70","image-keyboard-response","51","404480","0.0-6.0-1.22","MAGA","4","f","rechts","24","","","self","f","30","true"
"null","<div style=""font-size:60px;"">+</div>","null","html-keyboard-response","52","404782","0.0-6.0-0.23","MAGA","4","f","rechts","24","","fixation","","","",""
"675","img/90_150.png","70","image-keyboard-response","53","405459","0.0-6.0-1.23","MAGA","4","f","rechts","24","","","self","f","90","true"
"null","<div style=""font-size:60px;"">+</div>","null","html-keyboard-response","54","405810","0.0-6.0-0.24","MAGA","4","f","rechts","24","","fixation","","","",""
"587","img/0_150.png","74","image-keyboard-response","55","406398","0.0-6.0-1.24","MAGA","4","f","rechts","24","","","self","j","0","true"
"null","<div style=""font-size:60px;"">+</div>","null","html-keyboard-response","56","406799","0.0-6.0-0.25","MAGA","4","f","rechts","24","","fixation","","","",""
"563","img/60_180.png","74","image-keyboard-response","57","407364","0.0-6.0-1.25","MAGA","4","f","rechts","24","","","self","j","60","true"
"null","<div style=""font-size:60px;"">+</div>","null","html-keyboard-response","58","407714","0.0-6.0-0.26","MAGA","4","f","rechts","24","","fixation","","","",""
"554","img/0_60.png","74","image-keyboard-response","59","408269","0.0-6.0-1.26","MAGA","4","f","rechts","24","","","self","j","0","true"
"null","<div style=""font-size:60px;"">+</div>","null","html-keyboard-response","60","408620","0.0-6.0-0.27","MAGA","4","f","rechts","24","","fixation","","","",""
"544","img/L120_180.png","70","image-keyboard-response","61","409165","0.0-6.0-1.27","MAGA","4","f","rechts","24","","","self","f","120","true"
"null","<div style=""font-size:60px;"">+</div>","null","html-keyboard-response","62","409617","0.0-6.0-0.28","MAGA","4","f","rechts","24","","fixation","","","",""
"516","img/150_90.png","70","image-keyboard-response","63","410134","0.0-6.0-1.28","MAGA","4","f","rechts","24","","","self","f","150","true"
"null","<div style=""font-size:60px;"">+</div>","null","html-keyboard-response","64","410535","0.0-6.0-0.29","MAGA","4","f","rechts","24","","fixation","","","",""
"566","img/0_30.png","74","image-keyboard-response","65","411103","0.0-6.0-1.29","MAGA","4","f","rechts","24","","","self","j","0","true"
"null","<div style=""font-size:60px;"">+</div>","null","html-keyboard-response","66","411603","0.0-6.0-0.30","MAGA","4","f","rechts","24","","fixation","","","",""
"700","img/150_240.png","74","image-keyboard-response","67","412304","0.0-6.0-1.30","MAGA","4","f","rechts","24","","","self","j","150","true"
"null","<div style=""font-size:60px;"">+</div>","null","html-keyboard-response","68","412605","0.0-6.0-0.31","MAGA","4","f","rechts","24","","fixation","","","",""
"748","img/30_180.png","74","image-keyboard-response","69","413354","0.0-6.0-1.31","MAGA","4","f","rechts","24","","","self","j","30","true"
"null","<div style=""font-size:60px;"">+</div>","null","html-keyboard-response","70","413655","0.0-6.0-0.32","MAGA","4","f","rechts","24","","fixation","","","",""
"631","img/150_270.png","74","image-keyboard-response","71","414287","0.0-6.0-1.32","MAGA","4","f","rechts","24","","","self","j","150","true"
"null","<div style=""font-size:60px;"">+</div>","null","html-keyboard-response","72","414788","0.0-6.0-0.33","MAGA","4","f","rechts","24","","fixation","","","",""
"903","img/120_330.png","70","image-keyboard-response","73","415692","0.0-6.0-1.33","MAGA","4","f","rechts","24","","","self","f","120","true"
"null","<div style=""font-size:60px;"">+</div>","null","html-keyboard-response","74","416043","0.0-6.0-0.34","MAGA","4","f","rechts","24","","fixation","","","",""
"682","img/30_60.png","74","image-keyboard-response","75","416727","0.0-6.0-1.34","MAGA","4","f","rechts","24","","","self","j","30","true"
"null","<div style=""font-size:60px;"">+</div>","null","html-keyboard-response","76","417228","0.0-6.0-0.35","MAGA","4","f","rechts","24","","fixation","","","",""
"518","img/0_270.png","70","image-keyboard-response","77","417747","0.0-6.0-1.35","MAGA","4","f","rechts","24","","","self","f","0","true"
"null","<div style=""font-size:60px;"">+</div>","null","html-keyboard-response","78","418098","0.0-6.0-0.36","MAGA","4","f","rechts","24","","fixation","","","",""
"669","img/90_30.png","74","image-keyboard-response","79","418769","0.0-6.0-1.36","MAGA","4","f","rechts","24","","","self","j","90","true"
"null","<div style=""font-size:60px;"">+</div>","null","html-keyboard-response","80","419220","0.0-6.0-0.37","MAGA","4","f","rechts","24","","fixation","","","",""
"506","img/30_90.png","74","image-keyboard-response","81","419728","0.0-6.0-1.37","MAGA","4","f","rechts","24","","","self","j","30","true"
"null","<div style=""font-size:60px;"">+</div>","null","html-keyboard-response","82","420229","0.0-6.0-0.38","MAGA","4","f","rechts","24","","fixation","","","",""
"546","img/0_90.png","74","image-keyboard-response","83","420777","0.0-6.0-1.38","MAGA","4","f","rechts","24","","","self","j","0","true"
"null","<div style=""font-size:60px;"">+</div>","null","html-keyboard-response","84","421228","0.0-6.0-0.39","MAGA","4","f","rechts","24","","fixation","","","",""
"663","img/60_30.png","74","image-keyboard-response","85","421892","0.0-6.0-1.39","MAGA","4","f","rechts","24","","","self","j","60","true"
"null","<div style=""font-size:60px;"">+</div>","null","html-keyboard-response","86","422344","0.0-6.0-0.40","MAGA","4","f","rechts","24","","fixation","","","",""
"760","img/90_120.png","70","image-keyboard-response","87","423106","0.0-6.0-1.40","MAGA","4","f","rechts","24","","","self","f","90","true"
"null","<div style=""font-size:60px;"">+</div>","null","html-keyboard-response","88","423457","0.0-6.0-0.41","MAGA","4","f","rechts","24","","fixation","","","",""
"535","img/0_120.png","74","image-keyboard-response","89","423994","0.0-6.0-1.41","MAGA","4","f","rechts","24","","","self","j","0","true"
"null","<div style=""font-size:60px;"">+</div>","null","html-keyboard-response","90","424345","0.0-6.0-0.42","MAGA","4","f","rechts","24","","fixation","","","",""
"770","img/120_30.png","74","image-keyboard-response","91","425117","0.0-6.0-1.42","MAGA","4","f","rechts","24","","","self","j","120","true"
"null","<div style=""font-size:60px;"">+</div>","null","html-keyboard-response","92","425568","0.0-6.0-0.43","MAGA","4","f","rechts","24","","fixation","","","",""
"827","img/30_240.png","70","image-keyboard-response","93","426397","0.0-6.0-1.43","MAGA","4","f","rechts","24","","","self","f","30","true"
"null","<div style=""font-size:60px;"">+</div>","null","html-keyboard-response","94","426698","0.0-6.0-0.44","MAGA","4","f","rechts","24","","fixation","","","",""
"607","img/30_270.png","70","image-keyboard-response","95","427306","0.0-6.0-1.44","MAGA","4","f","rechts","24","","","self","f","30","true"
"null","<div style=""font-size:60px;"">+</div>","null","html-keyboard-response","96","427608","0.0-6.0-0.45","MAGA","4","f","rechts","24","","fixation","","","",""
"774","img/60_210.png","74","image-keyboard-response","97","428383","0.0-6.0-1.45","MAGA","4","f","rechts","24","","","self","j","60","true"
"null","<div style=""font-size:60px;"">+</div>","null","html-keyboard-response","98","428685","0.0-6.0-0.46","MAGA","4","f","rechts","24","","fixation","","","",""
"631","img/0_240.png","70","image-keyboard-response","99","429317","0.0-6.0-1.46","MAGA","4","f","rechts","24","","","self","f","0","true"
"null","<div style=""font-size:60px;"">+</div>","null","html-keyboard-response","100","429819","0.0-6.0-0.47","MAGA","4","f","rechts","24","","fixation","","","",""
"652","img/60_270.png","70","image-keyboard-response","101","430472","0.0-6.0-1.47","MAGA","4","f","rechts","24","","","self","f","60","true"
"null","<div style=""font-size:60px;"">+</div>","null","html-keyboard-response","102","430824","0.0-6.0-0.48","MAGA","4","f","rechts","24","","fixation","","","",""
"739","img/120_90.png","70","image-keyboard-response","103","431564","0.0-6.0-1.48","MAGA","4","f","rechts","24","","","self","f","120","true"
"null","<div style=""font-size:60px;"">+</div>","null","html-keyboard-response","104","431865","0.0-6.0-0.49","MAGA","4","f","rechts","24","","fixation","","","",""
"562","img/30_300.png","70","image-keyboard-response","105","432427","0.0-6.0-1.49","MAGA","4","f","rechts","24","","","self","f","30","true"
"null","<div style=""font-size:60px;"">+</div>","null","html-keyboard-response","106","432879","0.0-6.0-0.50","MAGA","4","f","rechts","24","","fixation","","","",""
"703","img/60_330.png","70","image-keyboard-response","107","433582","0.0-6.0-1.50","MAGA","4","f","rechts","24","","","self","f","60","true"
"null","<div style=""font-size:60px;"">+</div>","null","html-keyboard-response","108","434084","0.0-6.0-0.51","MAGA","4","f","rechts","24","","fixation","","","",""
"554","img/0_210.png","70","image-keyboard-response","109","434639","0.0-6.0-1.51","MAGA","4","f","rechts","24","","","self","f","0","true"
"null","<div style=""font-size:60px;"">+</div>","null","html-keyboard-response","110","435141","0.0-6.0-0.52","MAGA","4","f","rechts","24","","fixation","","","",""
"615","img/90_300.png","70","image-keyboard-response","111","435757","0.0-6.0-1.52","MAGA","4","f","rechts","24","","","self","f","90","true"
"null","<div style=""font-size:60px;"">+</div>","null","html-keyboard-response","112","436109","0.0-6.0-0.53","MAGA","4","f","rechts","24","","fixation","","","",""
"640","img/90_240.png","74","image-keyboard-response","113","436750","0.0-6.0-1.53","MAGA","4","f","rechts","24","","","self","j","90","true"
"null","<div style=""font-size:60px;"">+</div>","null","html-keyboard-response","114","437202","0.0-6.0-0.54","MAGA","4","f","rechts","24","","fixation","","","",""
"536","img/120_180.png","74","image-keyboard-response","115","437739","0.0-6.0-1.54","MAGA","4","f","rechts","24","","","self","j","120","true"
"null","<div style=""font-size:60px;"">+</div>","null","html-keyboard-response","116","438241","0.0-6.0-0.55","MAGA","4","f","rechts","24","","fixation","","","",""
"729","img/120_330.png","70","image-keyboard-response","117","438971","0.0-6.0-1.55","MAGA","4","f","rechts","24","","","self","f","120","true"
"null","<div style=""font-size:60px;"">+</div>","null","html-keyboard-response","118","439323","0.0-6.0-0.56","MAGA","4","f","rechts","24","","fixation","","","",""
"637","img/150_90.png","70","image-keyboard-response","119","439961","0.0-6.0-1.56","MAGA","4","f","rechts","24","","","self","f","150","true"
"null","<div style=""font-size:60px;"">+</div>","null","html-keyboard-response","120","440313","0.0-6.0-0.57","MAGA","4","f","rechts","24","","fixation","","","",""
"569","img/L60_180.png","70","image-keyboard-response","121","440883","0.0-6.0-1.57","MAGA","4","f","rechts","24","","","self","f","60","true"
"null","<div style=""font-size:60px;"">+</div>","null","html-keyboard-response","122","441334","0.0-6.0-0.58","MAGA","4","f","rechts","24","","fixation","","","",""
"538","img/0_330.png","70","image-keyboard-response","123","441873","0.0-6.0-1.58","MAGA","4","f","rechts","24","","","self","f","0","true"
"null","<div style=""font-size:60px;"">+</div>","null","html-keyboard-response","124","442175","0.0-6.0-0.59","MAGA","4","f","rechts","24","","fixation","","","",""
"564","img/0_150.png","74","image-keyboard-response","125","442739","0.0-6.0-1.59","MAGA","4","f","rechts","24","","","self","j","0","true"
"null","<div style=""font-size:60px;"">+</div>","null","html-keyboard-response","126","443191","0.0-6.0-0.60","MAGA","4","f","rechts","24","","fixation","","","",""
"570","img/L150_180.png","70","image-keyboard-response","127","443761","0.0-6.0-1.60","MAGA","4","f","rechts","24","","","self","f","150","true"
"null","<div style=""font-size:60px;"">+</div>","null","html-keyboard-response","128","444213","0.0-6.0-0.61","MAGA","4","f","rechts","24","","fixation","","","",""
"674","img/150_300.png","74","image-keyboard-response","129","444887","0.0-6.0-1.61","MAGA","4","f","rechts","24","","","self","j","150","true"
"null","<div style=""font-size:60px;"">+</div>","null","html-keyboard-response","130","445288","0.0-6.0-0.62","MAGA","4","f","rechts","24","","fixation","","","",""
"718","img/60_90.png","74","image-keyboard-response","131","446007","0.0-6.0-1.62","MAGA","4","f","rechts","24","","","self","j","60","true"
"null","<div style=""font-size:60px;"">+</div>","null","html-keyboard-response","132","446459","0.0-6.0-0.63","MAGA","4","f","rechts","24","","fixation","","","",""
"693","img/60_30.png","74","image-keyboard-response","133","447152","0.0-6.0-1.63","MAGA","4","f","rechts","24","","","self","j","60","true"
"null","<div style=""font-size:60px;"">+</div>","null","html-keyboard-response","134","447504","0.0-6.0-0.64","MAGA","4","f","rechts","24","","fixation","","","",""
"663","img/150_180.png","74","image-keyboard-response","135","448167","0.0-6.0-1.64","MAGA","4","f","rechts","24","","","self","j","150","true"
"null","<div style=""font-size:60px;"">+</div>","null","html-keyboard-response","136","448519","0.0-6.0-0.65","MAGA","4","f","rechts","24","","fixation","","","",""
"657","img/L90_180.png","70","image-keyboard-response","137","449177","0.0-6.0-1.65","MAGA","4","f","rechts","24","","","self","f","90","true"
"null","<div style=""font-size:60px;"">+</div>","null","html-keyboard-response","138","449479","0.0-6.0-0.66","MAGA","4","f","rechts","24","","fixation","","","",""
"653","img/120_270.png","74","image-keyboard-response","139","450132","0.0-6.0-1.66","MAGA","4","f","rechts","24","","","self","j","120","true"
"null","<div style=""font-size:60px;"">+</div>","null","html-keyboard-response","140","450433","0.0-6.0-0.67","MAGA","4","f","rechts","24","","fixation","","","",""
"574","img/90_180.png","74","image-keyboard-response","141","451008","0.0-6.0-1.67","MAGA","4","f","rechts","24","","","self","j","90","true"
"null","<div style=""font-size:60px;"">+</div>","null","html-keyboard-response","142","451359","0.0-6.0-0.68","MAGA","4","f","rechts","24","","fixation","","","",""
"720","img/30_90.png","74","image-keyboard-response","143","452080","0.0-6.0-1.68","MAGA","4","f","rechts","24","","","self","j","30","true"
"null","<div style=""font-size:60px;"">+</div>","null","html-keyboard-response","144","452581","0.0-6.0-0.69","MAGA","4","f","rechts","24","","fixation","","","",""
"640","img/120_210.png","74","image-keyboard-response","145","453222","0.0-6.0-1.69","MAGA","4","f","rechts","24","","","self","j","120","true"
"null","<div style=""font-size:60px;"">+</div>","null","html-keyboard-response","146","453574","0.0-6.0-0.70","MAGA","4","f","rechts","24","","fixation","","","",""
"534","img/30_180.png","74","image-keyboard-response","147","454108","0.0-6.0-1.70","MAGA","4","f","rechts","24","","","self","j","30","true"
"null","<div style=""font-size:60px;"">+</div>","null","html-keyboard-response","148","454510","0.0-6.0-0.71","MAGA","4","f","rechts","24","","fixation","","","",""
"638","img/90_60.png","74","image-keyboard-response","149","455148","0.0-6.0-1.71","MAGA","4","f","rechts","24","","","self","j","90","true"
"null","<div style=""font-size:60px;"">+</div>","null","html-keyboard-response","150","455500","0.0-6.0-0.72","MAGA","4","f","rechts","24","","fixation","","","",""
"661","img/90_150.png","70","image-keyboard-response","151","456161","0.0-6.0-1.72","MAGA","4","f","rechts","24","","","self","f","90","true"
"null","<div style=""font-size:60px;"">+</div>","null","html-keyboard-response","152","456462","0.0-6.0-0.73","MAGA","4","f","rechts","24","","fixation","","","",""
"481","img/0_270.png","70","image-keyboard-response","153","456944","0.0-6.0-1.73","MAGA","4","f","rechts","24","","","self","f","0","true"
"null","<div style=""font-size:60px;"">+</div>","null","html-keyboard-response","154","457295","0.0-6.0-0.74","MAGA","4","f","rechts","24","","fixation","","","",""
"547","img/0_210.png","70","image-keyboard-response","155","457842","0.0-6.0-1.74","MAGA","4","f","rechts","24","","","self","f","0","true"
"null","<div style=""font-size:60px;"">+</div>","null","html-keyboard-response","156","458344","0.0-6.0-0.75","MAGA","4","f","rechts","24","","fixation","","","",""
"547","img/0_30.png","74","image-keyboard-response","157","458891","0.0-6.0-1.75","MAGA","4","f","rechts","24","","","self","j","0","true"
"null","<div style=""font-size:60px;"">+</div>","null","html-keyboard-response","158","459343","0.0-6.0-0.76","MAGA","4","f","rechts","24","","fixation","","","",""
"479","img/0_120.png","74","image-keyboard-response","159","459822","0.0-6.0-1.76","MAGA","4","f","rechts","24","","","self","j","0","true"
"null","<div style=""font-size:60px;"">+</div>","null","html-keyboard-response","160","460124","0.0-6.0-0.77","MAGA","4","f","rechts","24","","fixation","","","",""
"707","img/90_30.png","74","image-keyboard-response","161","460831","0.0-6.0-1.77","MAGA","4","f","rechts","24","","","self","j","90","true"
"null","<div style=""font-size:60px;"">+</div>","null","html-keyboard-response","162","461282","0.0-6.0-0.78","MAGA","4","f","rechts","24","","fixation","","","",""
"741","img/60_210.png","74","image-keyboard-response","163","462024","0.0-6.0-1.78","MAGA","4","f","rechts","24","","","self","j","60","true"
"null","<div style=""font-size:60px;"">+</div>","null","html-keyboard-response","164","462426","0.0-6.0-0.79","MAGA","4","f","rechts","24","","fixation","","","",""
"526","img/0_300.png","70","image-keyboard-response","165","462952","0.0-6.0-1.79","MAGA","4","f","rechts","24","","","self","f","0","true"
"null","<div style=""font-size:60px;"">+</div>","null","html-keyboard-response","166","463453","0.0-6.0-0.80","MAGA","4","f","rechts","24","","fixation","","","",""
"526","img/0_60.png","74","image-keyboard-response","167","463981","0.0-6.0-1.80","MAGA","4","f","rechts","24","","","self","j","0","true"
"null","<div style=""font-size:60px;"">+</div>","null","html-keyboard-response","168","464332","0.0-6.0-0.81","MAGA","4","f","rechts","24","","fixation","","","",""
"596","img/90_210.png","74","image-keyboard-response","169","464930","0.0-6.0-1.81","MAGA","4","f","rechts","24","","","self","j","90","true"
"null","<div style=""font-size:60px;"">+</div>","null","html-keyboard-response","170","465231","0.0-6.0-0.82","MAGA","4","f","rechts","24","","fixation","","","",""
"551","img/30_60.png","74","image-keyboard-response","171","465783","0.0-6.0-1.82","MAGA","4","f","rechts","24","","","self","j","30","true"
"null","<div style=""font-size:60px;"">+</div>","null","html-keyboard-response","172","466084","0.0-6.0-0.83","MAGA","4","f","rechts","24","","fixation","","","",""
"552","img/60_330.png","70","image-keyboard-response","173","466637","0.0-6.0-1.83","MAGA","4","f","rechts","24","","","self","f","60","true"
"null","<div style=""font-size:60px;"">+</div>","null","html-keyboard-response","174","467089","0.0-6.0-0.84","MAGA","4","f","rechts","24","","fixation","","","",""
"565","img/120_150.png","70","image-keyboard-response","175","467655","0.0-6.0-1.84","MAGA","4","f","rechts","24","","","self","f","120","true"
"null","<div style=""font-size:60px;"">+</div>","null","html-keyboard-response","176","468157","0.0-6.0-0.85","MAGA","4","f","rechts","24","","fixation","","","",""
"828","img/90_120.png","70","image-keyboard-response","177","468986","0.0-6.0-1.85","MAGA","4","f","rechts","24","","","self","f","90","true"
"null","<div style=""font-size:60px;"">+</div>","null","html-keyboard-response","178","469387","0.0-6.0-0.86","MAGA","4","f","rechts","24","","fixation","","","",""
"551","img/30_240.png","70","image-keyboard-response","179","469938","0.0-6.0-1.86","MAGA","4","f","rechts","24","","","self","f","30","true"
"null","<div style=""font-size:60px;"">+</div>","null","html-keyboard-response","180","470390","0.0-6.0-0.87","MAGA","4","f","rechts","24","","fixation","","","",""
"1077","img/120_30.png","74","image-keyboard-response","181","471468","0.0-6.0-1.87","MAGA","4","f","rechts","24","","","self","j","120","true"
"null","<div style=""font-size:60px;"">+</div>","null","html-keyboard-response","182","471870","0.0-6.0-0.88","MAGA","4","f","rechts","24","","fixation","","","",""
"671","img/150_60.png","70","image-keyboard-response","183","472541","0.0-6.0-1.88","MAGA","4","f","rechts","24","","","self","f","150","true"
"null","<div style=""font-size:60px;"">+</div>","null","html-keyboard-response","184","472943","0.0-6.0-0.89","MAGA","4","f","rechts","24","","fixation","","","",""
"585","img/0_90.png","74","image-keyboard-response","185","473530","0.0-6.0-1.89","MAGA","4","f","rechts","24","","","self","j","0","true"
"null","<div style=""font-size:60px;"">+</div>","null","html-keyboard-response","186","473831","0.0-6.0-0.90","MAGA","4","f","rechts","24","","fixation","","","",""
"583","img/0_240.png","70","image-keyboard-response","187","474416","0.0-6.0-1.90","MAGA","4","f","rechts","24","","","self","f","0","true"
"null","<div style=""font-size:60px;"">+</div>","null","html-keyboard-response","188","474767","0.0-6.0-0.91","MAGA","4","f","rechts","24","","fixation","","","",""
"507","img/30_300.png","70","image-keyboard-response","189","475275","0.0-6.0-1.91","MAGA","4","f","rechts","24","","","self","f","30","true"
"null","<div style=""font-size:60px;"">+</div>","null","html-keyboard-response","190","475577","0.0-6.0-0.92","MAGA","4","f","rechts","24","","fixation","","","",""
"737","img/60_150.png","70","image-keyboard-response","191","476314","0.0-6.0-1.92","MAGA","4","f","rechts","24","","","self","f","60","true"
"null","<div style=""font-size:60px;"">+</div>","null","html-keyboard-response","192","476816","0.0-6.0-0.93","MAGA","4","f","rechts","24","","fixation","","","",""
"567","img/60_180.png","74","image-keyboard-response","193","477383","0.0-6.0-1.93","MAGA","4","f","rechts","24","","","self","j","60","true"
"null","<div style=""font-size:60px;"">+</div>","null","html-keyboard-response","194","477885","0.0-6.0-0.94","MAGA","4","f","rechts","24","","fixation","","","",""
"580","img/150_120.png","70","image-keyboard-response","195","478466","0.0-6.0-1.94","MAGA","4","f","rechts","24","","","self","f","150","true"
"null","<div style=""font-size:60px;"">+</div>","null","html-keyboard-response","196","478918","0.0-6.0-0.95","MAGA","4","f","rechts","24","","fixation","","","",""
"641","img/150_270.png","74","image-keyboard-response","197","479560","0.0-6.0-1.95","MAGA","4","f","rechts","24","","","self","j","150","true"
"null","<div style=""font-size:60px;"">+</div>","null","html-keyboard-response","198","480012","0.0-6.0-0.96","MAGA","4","f","rechts","24","","fixation","","","",""
"532","img/150_240.png","74","image-keyboard-response","199","480545","0.0-6.0-1.96","MAGA","4","f","rechts","24","","","self","j","150","true"
"null","<div style=""font-size:60px;"">+</div>","null","html-keyboard-response","200","480897","0.0-6.0-0.97","MAGA","4","f","rechts","24","","fixation","","","",""
"633","img/L30_180.png","70","image-keyboard-response","201","481530","0.0-6.0-1.97","MAGA","4","f","rechts","24","","","self","f","30","true"
"null","<div style=""font-size:60px;"">+</div>","null","html-keyboard-response","202","482032","0.0-6.0-0.98","MAGA","4","f","rechts","24","","fixation","","","",""
"571","img/120_90.png","70","image-keyboard-response","203","482604","0.0-6.0-1.98","MAGA","4","f","rechts","24","","","self","f","120","true"
"null","<div style=""font-size:60px;"">+</div>","null","html-keyboard-response","204","482956","0.0-6.0-0.99","MAGA","4","f","rechts","24","","fixation","","","",""
"714","img/60_270.png","70","image-keyboard-response","205","483670","0.0-6.0-1.99","MAGA","4","f","rechts","24","","","self","f","60","true"
"null","<div style=""font-size:60px;"">+</div>","null","html-keyboard-response","206","484122","0.0-6.0-0.100","MAGA","4","f","rechts","24","","fixation","","","",""
"578","img/L120_180.png","70","image-keyboard-response","207","484701","0.0-6.0-1.100","MAGA","4","f","rechts","24","","","self","f","120","true"
"null","<div style=""font-size:60px;"">+</div>","null","html-keyboard-response","208","485053","0.0-6.0-0.101","MAGA","4","f","rechts","24","","fixation","","","",""
"955","img/30_120.png","74","image-keyboard-response","209","486008","0.0-6.0-1.101","MAGA","4","f","rechts","24","","","self","j","30","true"
"null","<div style=""font-size:60px;"">+</div>","null","html-keyboard-response","210","486510","0.0-6.0-0.102","MAGA","4","f","rechts","24","","fixation","","","",""
"662","img/30_270.png","70","image-keyboard-response","211","487172","0.0-6.0-1.102","MAGA","4","f","rechts","24","","","self","f","30","true"
"null","<div style=""font-size:60px;"">+</div>","null","html-keyboard-response","212","487574","0.0-6.0-0.103","MAGA","4","f","rechts","24","","fixation","","","",""
"664","img/90_330.png","70","image-keyboard-response","213","488238","0.0-6.0-1.103","MAGA","4","f","rechts","24","","","self","f","90","true"
"null","<div style=""font-size:60px;"">+</div>","null","html-keyboard-response","214","488589","0.0-6.0-0.104","MAGA","4","f","rechts","24","","fixation","","","",""
"610","img/150_180.png","74","image-keyboard-response","215","489200","0.0-6.0-1.104","MAGA","4","f","rechts","24","","","self","j","150","true"
"null","<div style=""font-size:60px;"">+</div>","null","html-keyboard-response","216","489502","0.0-6.0-0.105","MAGA","4","f","rechts","24","","fixation","","","",""
"659","img/150_270.png","74","image-keyboard-response","217","490162","0.0-6.0-1.105","MAGA","4","f","rechts","24","","","self","j","150","true"
"null","<div style=""font-size:60px;"">+</div>","null","html-keyboard-response","218","490464","0.0-6.0-0.106","MAGA","4","f","rechts","24","","fixation","","","",""
"624","img/L60_180.png","70","image-keyboard-response","219","491088","0.0-6.0-1.106","MAGA","4","f","rechts","24","","","self","f","60","true"
"null","<div style=""font-size:60px;"">+</div>","null","html-keyboard-response","220","491490","0.0-6.0-0.107","MAGA","4","f","rechts","24","","fixation","","","",""
"597","img/0_30.png","74","image-keyboard-response","221","492087","0.0-6.0-1.107","MAGA","4","f","rechts","24","","","self","j","0","true"
"null","<div style=""font-size:60px;"">+</div>","null","html-keyboard-response","222","492438","0.0-6.0-0.108","MAGA","4","f","rechts","24","","fixation","","","",""
"590","img/0_240.png","70","image-keyboard-response","223","493028","0.0-6.0-1.108","MAGA","4","f","rechts","24","","","self","f","0","true"
"null","<div style=""font-size:60px;"">+</div>","null","html-keyboard-response","224","493430","0.0-6.0-0.109","MAGA","4","f","rechts","24","","fixation","","","",""
"636","img/30_270.png","70","image-keyboard-response","225","494067","0.0-6.0-1.109","MAGA","4","f","rechts","24","","","self","f","30","true"
"null","<div style=""font-size:60px;"">+</div>","null","html-keyboard-response","226","494419","0.0-6.0-0.110","MAGA","4","f","rechts","24","","fixation","","","",""
"712","img/L150_180.png","70","image-keyboard-response","227","495132","0.0-6.0-1.110","MAGA","4","f","rechts","24","","","self","f","150","true"
"null","<div style=""font-size:60px;"">+</div>","null","html-keyboard-response","228","495583","0.0-6.0-0.111","MAGA","4","f","rechts","24","","fixation","","","",""
"641","img/0_150.png","74","image-keyboard-response","229","496225","0.0-6.0-1.111","MAGA","4","f","rechts","24","","","self","j","0","true"
"null","<div style=""font-size:60px;"">+</div>","null","html-keyboard-response","230","496677","0.0-6.0-0.112","MAGA","4","f","rechts","24","","fixation","","","",""
"701","img/60_210.png","74","image-keyboard-response","231","497378","0.0-6.0-1.112","MAGA","4","f","rechts","24","","","self","j","60","true"
"null","<div style=""font-size:60px;"">+</div>","null","html-keyboard-response","232","497730","0.0-6.0-0.113","MAGA","4","f","rechts","24","","fixation","","","",""
"764","img/120_30.png","74","image-keyboard-response","233","498494","0.0-6.0-1.113","MAGA","4","f","rechts","24","","","self","j","120","true"
"null","<div style=""font-size:60px;"">+</div>","null","html-keyboard-response","234","498996","0.0-6.0-0.114","MAGA","4","f","rechts","24","","fixation","","","",""
"556","img/90_150.png","70","image-keyboard-response","235","499552","0.0-6.0-1.114","MAGA","4","f","rechts","24","","","self","f","90","true"
"null","<div style=""font-size:60px;"">+</div>","null","html-keyboard-response","236","499904","0.0-6.0-0.115","MAGA","4","f","rechts","24","","fixation","","","",""
"499","img/60_150.png","70","image-keyboard-response","237","500404","0.0-6.0-1.115","MAGA","4","f","rechts","24","","","self","f","60","true"
"null","<div style=""font-size:60px;"">+</div>","null","html-keyboard-response","238","500756","0.0-6.0-0.116","MAGA","4","f","rechts","24","","fixation","","","",""
"830","img/90_330.png","70","image-keyboard-response","239","501587","0.0-6.0-1.116","MAGA","4","f","rechts","24","","","self","f","90","true"
"null","<div style=""font-size:60px;"">+</div>","null","html-keyboard-response","240","501938","0.0-6.0-0.117","MAGA","4","f","rechts","24","","fixation","","","",""
"625","img/120_210.png","74","image-keyboard-response","241","502564","0.0-6.0-1.117","MAGA","4","f","rechts","24","","","self","j","120","true"
"null","<div style=""font-size:60px;"">+</div>","null","html-keyboard-response","242","502866","0.0-6.0-0.118","MAGA","4","f","rechts","24","","fixation","","","",""
"816","img/90_60.png","74","image-keyboard-response","243","503682","0.0-6.0-1.118","MAGA","4","f","rechts","24","","","self","j","90","true"
"null","<div style=""font-size:60px;"">+</div>","null","html-keyboard-response","244","503984","0.0-6.0-0.119","MAGA","4","f","rechts","24","","fixation","","","",""
"590","img/120_180.png","74","image-keyboard-response","245","504575","0.0-6.0-1.119","MAGA","4","f","rechts","24","","","self","j","120","true"
"null","<div style=""font-size:60px;"">+</div>","null","html-keyboard-response","246","504976","0.0-6.0-0.120","MAGA","4","f","rechts","24","","fixation","","","",""
"604","img/90_120.png","70","image-keyboard-response","247","505581","0.0-6.0-1.120","MAGA","4","f","rechts","24","","","self","f","90","true"
"null","<div style=""font-size:60px;"">+</div>","null","html-keyboard-response","248","505882","0.0-6.0-0.121","MAGA","4","f","rechts","24","","fixation","","","",""
"642","img/90_210.png","74","image-keyboard-response","249","506525","0.0-6.0-1.121","MAGA","4","f","rechts","24","","","self","j","90","true"
"null","<div style=""font-size:60px;"">+</div>","null","html-keyboard-response","250","506926","0.0-6.0-0.122","MAGA","4","f","rechts","24","","fixation","","","",""
"569","img/120_270.png","74","image-keyboard-response","251","507496","0.0-6.0-1.122","MAGA","4","f","rechts","24","","","self","j","120","true"
"null","<div style=""font-size:60px;"">+</div>","null","html-keyboard-response","252","507997","0.0-6.0-0.123","MAGA","4","f","rechts","24","","fixation","","","",""
"452","img/90_180.png","74","image-keyboard-response","253","508450","0.0-6.0-1.123","MAGA","4","f","rechts","24","","","self","j","90","true"
"null","<div style=""font-size:60px;"">+</div>","null","html-keyboard-response","254","508901","0.0-6.0-0.124","MAGA","4","f","rechts","24","","fixation","","","",""
"686","img/30_60.png","74","image-keyboard-response","255","509587","0.0-6.0-1.124","MAGA","4","f","rechts","24","","","self","j","30","true"
"null","<div style=""font-size:60px;"">+</div>","null","html-keyboard-response","256","510088","0.0-6.0-0.125","MAGA","4","f","rechts","24","","fixation","","","",""
"992","img/30_120.png","70","image-keyboard-response","257","511082","0.0-6.0-1.125","MAGA","4","f","rechts","24","","","self","j","30","false"
"null","<div style=""font-size:60px;"">+</div>","null","html-keyboard-response","258","511533","0.0-6.0-0.126","MAGA","4","f","rechts","24","","fixation","","","",""
"645","img/60_30.png","74","image-keyboard-response","259","512179","0.0-6.0-1.126","MAGA","4","f","rechts","24","","","self","j","60","true"
"null","<div style=""font-size:60px;"">+</div>","null","html-keyboard-response","260","512630","0.0-6.0-0.127","MAGA","4","f","rechts","24","","fixation","","","",""
"523","img/0_60.png","74","image-keyboard-response","261","513154","0.0-6.0-1.127","MAGA","4","f","rechts","24","","","self","j","0","true"
"null","<div style=""font-size:60px;"">+</div>","null","html-keyboard-response","262","513656","0.0-6.0-0.128","MAGA","4","f","rechts","24","","fixation","","","",""
"582","img/0_300.png","70","image-keyboard-response","263","514238","0.0-6.0-1.128","MAGA","4","f","rechts","24","","","self","f","0","true"
"null","<div style=""font-size:60px;"">+</div>","null","html-keyboard-response","264","514539","0.0-6.0-0.129","MAGA","4","f","rechts","24","","fixation","","","",""
"659","img/60_270.png","70","image-keyboard-response","265","515199","0.0-6.0-1.129","MAGA","4","f","rechts","24","","","self","f","60","true"
"null","<div style=""font-size:60px;"">+</div>","null","html-keyboard-response","266","515700","0.0-6.0-0.130","MAGA","4","f","rechts","24","","fixation","","","",""
"515","img/30_300.png","70","image-keyboard-response","267","516217","0.0-6.0-1.130","MAGA","4","f","rechts","24","","","self","f","30","true"
"null","<div style=""font-size:60px;"">+</div>","null","html-keyboard-response","268","516568","0.0-6.0-0.131","MAGA","4","f","rechts","24","","fixation","","","",""
"550","img/0_210.png","70","image-keyboard-response","269","517120","0.0-6.0-1.131","MAGA","4","f","rechts","24","","","self","f","0","true"
"null","<div style=""font-size:60px;"">+</div>","null","html-keyboard-response","270","517471","0.0-6.0-0.132","MAGA","4","f","rechts","24","","fixation","","","",""
"558","img/60_180.png","74","image-keyboard-response","271","518031","0.0-6.0-1.132","MAGA","4","f","rechts","24","","","self","j","60","true"
"null","<div style=""font-size:60px;"">+</div>","null","html-keyboard-response","272","518482","0.0-6.0-0.133","MAGA","4","f","rechts","24","","fixation","","","",""
"545","img/0_330.png","70","image-keyboard-response","273","519029","0.0-6.0-1.133","MAGA","4","f","rechts","24","","","self","f","0","true"
"null","<div style=""font-size:60px;"">+</div>","null","html-keyboard-response","274","519480","0.0-6.0-0.134","MAGA","4","f","rechts","24","","fixation","","","",""
"711","img/120_90.png","70","image-keyboard-response","275","520192","0.0-6.0-1.134","MAGA","4","f","rechts","24","","","self","f","120","true"
"null","<div style=""font-size:60px;"">+</div>","null","html-keyboard-response","276","520494","0.0-6.0-0.135","MAGA","4","f","rechts","24","","fixation","","","",""
"618","img/L30_180.png","70","image-keyboard-response","277","521113","0.0-6.0-1.135","MAGA","4","f","rechts","24","","","self","f","30","true"
"null","<div style=""font-size:60px;"">+</div>","null","html-keyboard-response","278","521465","0.0-6.0-0.136","MAGA","4","f","rechts","24","","fixation","","","",""
"604","img/150_120.png","70","image-keyboard-response","279","522070","0.0-6.0-1.136","MAGA","4","f","rechts","24","","","self","f","150","true"
"null","<div style=""font-size:60px;"">+</div>","null","html-keyboard-response","280","522372","0.0-6.0-0.137","MAGA","4","f","rechts","24","","fixation","","","",""
"877","img/150_60.png","70","image-keyboard-response","281","523250","0.0-6.0-1.137","MAGA","4","f","rechts","24","","","self","f","150","true"
"null","<div style=""font-size:60px;"">+</div>","null","html-keyboard-response","282","523751","0.0-6.0-0.138","MAGA","4","f","rechts","24","","fixation","","","",""
"547","img/150_90.png","70","image-keyboard-response","283","524299","0.0-6.0-1.138","MAGA","4","f","rechts","24","","","self","f","150","true"
"null","<div style=""font-size:60px;"">+</div>","null","html-keyboard-response","284","524751","0.0-6.0-0.139","MAGA","4","f","rechts","24","","fixation","","","",""
"782","img/90_30.png","74","image-keyboard-response","285","525534","0.0-6.0-1.139","MAGA","4","f","rechts","24","","","self","j","90","true"
"null","<div style=""font-size:60px;"">+</div>","null","html-keyboard-response","286","525886","0.0-6.0-0.140","MAGA","4","f","rechts","24","","fixation","","","",""
"585","img/0_270.png","70","image-keyboard-response","287","526472","0.0-6.0-1.140","MAGA","4","f","rechts","24","","","self","f","0","true"
"null","<div style=""font-size:60px;"">+</div>","null","html-keyboard-response","288","526774","0.0-6.0-0.141","MAGA","4","f","rechts","24","","fixation","","","",""
"590","img/30_90.png","74","image-keyboard-response","289","527364","0.0-6.0-1.141","MAGA","4","f","rechts","24","","","self","j","30","true"
"null","<div style=""font-size:60px;"">+</div>","null","html-keyboard-response","290","527866","0.0-6.0-0.142","MAGA","4","f","rechts","24","","fixation","","","",""
"853","img/90_300.png","70","image-keyboard-response","291","528719","0.0-6.0-1.142","MAGA","4","f","rechts","24","","","self","f","90","true"
"null","<div style=""font-size:60px;"">+</div>","null","html-keyboard-response","292","529021","0.0-6.0-0.143","MAGA","4","f","rechts","24","","fixation","","","",""
"575","img/L120_180.png","70","image-keyboard-response","293","529596","0.0-6.0-1.143","MAGA","4","f","rechts","24","","","self","f","120","true"
"null","<div style=""font-size:60px;"">+</div>","null","html-keyboard-response","294","529898","0.0-6.0-0.144","MAGA","4","f","rechts","24","","fixation","","","",""
"637","img/150_240.png","74","image-keyboard-response","295","530536","0.0-6.0-1.144","MAGA","4","f","rechts","24","","","self","j","150","true"
"null","<div style=""font-size:60px;"">+</div>","null","html-keyboard-response","296","530988","0.0-6.0-0.145","MAGA","4","f","rechts","24","","fixation","","","",""
"565","img/0_90.png","74","image-keyboard-response","297","531554","0.0-6.0-1.145","MAGA","4","f","rechts","24","","","self","j","0","true"
"null","<div style=""font-size:60px;"">+</div>","null","html-keyboard-response","298","531956","0.0-6.0-0.146","MAGA","4","f","rechts","24","","fixation","","","",""
"931","img/120_330.png","70","image-keyboard-response","299","532887","0.0-6.0-1.146","MAGA","4","f","rechts","24","","","self","f","120","true"
"null","<div style=""font-size:60px;"">+</div>","null","html-keyboard-response","300","533339","0.0-6.0-0.147","MAGA","4","f","rechts","24","","fixation","","","",""
"618","img/L90_180.png","70","image-keyboard-response","301","533959","0.0-6.0-1.147","MAGA","4","f","rechts","24","","","self","f","90","true"
"null","<div style=""font-size:60px;"">+</div>","null","html-keyboard-response","302","534410","0.0-6.0-0.148","MAGA","4","f","rechts","24","","fixation","","","",""
"623","img/90_240.png","74","image-keyboard-response","303","535034","0.0-6.0-1.148","MAGA","4","f","rechts","24","","","self","j","90","true"
"null","<div style=""font-size:60px;"">+</div>","null","html-keyboard-response","304","535436","0.0-6.0-0.149","MAGA","4","f","rechts","24","","fixation","","","",""
"607","img/30_180.png","74","image-keyboard-response","305","536043","0.0-6.0-1.149","MAGA","4","f","rechts","24","","","self","j","30","true"
"null","<div style=""font-size:60px;"">+</div>","null","html-keyboard-response","306","536395","0.0-6.0-0.150","MAGA","4","f","rechts","24","","fixation","","","",""
"558","img/0_120.png","74","image-keyboard-response","307","536954","0.0-6.0-1.150","MAGA","4","f","rechts","24","","","self","j","0","true"
"null","<div style=""font-size:60px;"">+</div>","null","html-keyboard-response","308","537456","0.0-6.0-0.151","MAGA","4","f","rechts","24","","fixation","","","",""
"649","img/150_300.png","74","image-keyboard-response","309","538106","0.0-6.0-1.151","MAGA","4","f","rechts","24","","","self","j","150","true"
"null","<div style=""font-size:60px;"">+</div>","null","html-keyboard-response","310","538508","0.0-6.0-0.152","MAGA","4","f","rechts","24","","fixation","","","",""
"564","img/120_150.png","70","image-keyboard-response","311","539073","0.0-6.0-1.152","MAGA","4","f","rechts","24","","","self","f","120","true"
"null","<div style=""font-size:60px;"">+</div>","null","html-keyboard-response","312","539524","0.0-6.0-0.153","MAGA","4","f","rechts","24","","fixation","","","",""
"581","img/30_240.png","70","image-keyboard-response","313","540106","0.0-6.0-1.153","MAGA","4","f","rechts","24","","","self","f","30","true"
"null","<div style=""font-size:60px;"">+</div>","null","html-keyboard-response","314","540558","0.0-6.0-0.154","MAGA","4","f","rechts","24","","fixation","","","",""
"589","img/60_90.png","74","image-keyboard-response","315","541147","0.0-6.0-1.154","MAGA","4","f","rechts","24","","","self","j","60","true"
"null","<div style=""font-size:60px;"">+</div>","null","html-keyboard-response","316","541549","0.0-6.0-0.155","MAGA","4","f","rechts","24","","fixation","","","",""
"559","img/60_330.png","70","image-keyboard-response","317","542108","0.0-6.0-1.155","MAGA","4","f","rechts","24","","","self","f","60","true"
"null","<div style=""font-size:60px;"">+</div>","null","html-keyboard-response","318","542610","0.0-6.0-0.156","MAGA","4","f","rechts","24","","fixation","","","",""
"592","img/L150_180.png","70","image-keyboard-response","319","543202","0.0-6.0-1.156","MAGA","4","f","rechts","24","","","self","f","150","true"
"null","<div style=""font-size:60px;"">+</div>","null","html-keyboard-response","320","543704","0.0-6.0-0.157","MAGA","4","f","rechts","24","","fixation","","","",""
"676","img/120_330.png","70","image-keyboard-response","321","544380","0.0-6.0-1.157","MAGA","4","f","rechts","24","","","self","f","120","true"
"null","<div style=""font-size:60px;"">+</div>","null","html-keyboard-response","322","544882","0.0-6.0-0.158","MAGA","4","f","rechts","24","","fixation","","","",""
"515","img/90_300.png","70","image-keyboard-response","323","545398","0.0-6.0-1.158","MAGA","4","f","rechts","24","","","self","f","90","true"
"null","<div style=""font-size:60px;"">+</div>","null","html-keyboard-response","324","545850","0.0-6.0-0.159","MAGA","4","f","rechts","24","","fixation","","","",""
"621","img/120_210.png","74","image-keyboard-response","325","546471","0.0-6.0-1.159","MAGA","4","f","rechts","24","","","self","j","120","true"
"null","<div style=""font-size:60px;"">+</div>","null","html-keyboard-response","326","546773","0.0-6.0-0.160","MAGA","4","f","rechts","24","","fixation","","","",""
"637","img/90_120.png","70","image-keyboard-response","327","547411","0.0-6.0-1.160","MAGA","4","f","rechts","24","","","self","f","90","true"
"null","<div style=""font-size:60px;"">+</div>","null","html-keyboard-response","328","547913","0.0-6.0-0.161","MAGA","4","f","rechts","24","","fixation","","","",""
"623","img/90_210.png","74","image-keyboard-response","329","548536","0.0-6.0-1.161","MAGA","4","f","rechts","24","","","self","j","90","true"
"null","<div style=""font-size:60px;"">+</div>","null","html-keyboard-response","330","548838","0.0-6.0-0.162","MAGA","4","f","rechts","24","","fixation","","","",""
"682","img/120_270.png","74","image-keyboard-response","331","549520","0.0-6.0-1.162","MAGA","4","f","rechts","24","","","self","j","120","true"
"null","<div style=""font-size:60px;"">+</div>","null","html-keyboard-response","332","549922","0.0-6.0-0.163","MAGA","4","f","rechts","24","","fixation","","","",""
"566","img/90_240.png","74","image-keyboard-response","333","550488","0.0-6.0-1.163","MAGA","4","f","rechts","24","","","self","j","90","true"
"null","<div style=""font-size:60px;"">+</div>","null","html-keyboard-response","334","550789","0.0-6.0-0.164","MAGA","4","f","rechts","24","","fixation","","","",""
"572","img/150_240.png","74","image-keyboard-response","335","551362","0.0-6.0-1.164","MAGA","4","f","rechts","24","","","self","j","150","true"
"null","<div style=""font-size:60px;"">+</div>","null","html-keyboard-response","336","551814","0.0-6.0-0.165","MAGA","4","f","rechts","24","","fixation","","","",""
"637","img/0_90.png","74","image-keyboard-response","337","552451","0.0-6.0-1.165","MAGA","4","f","rechts","24","","","self","j","0","true"
"null","<div style=""font-size:60px;"">+</div>","null","html-keyboard-response","338","552853","0.0-6.0-0.166","MAGA","4","f","rechts","24","","fixation","","","",""
"556","img/0_240.png","70","image-keyboard-response","339","553409","0.0-6.0-1.166","MAGA","4","f","rechts","24","","","self","f","0","true"
"null","<div style=""font-size:60px;"">+</div>","null","html-keyboard-response","340","553761","0.0-6.0-0.167","MAGA","4","f","rechts","24","","fixation","","","",""
"683","img/90_330.png","70","image-keyboard-response","341","554445","0.0-6.0-1.167","MAGA","4","f","rechts","24","","","self","f","90","true"
"null","<div style=""font-size:60px;"">+</div>","null","html-keyboard-response","342","554797","0.0-6.0-0.168","MAGA","4","f","rechts","24","","fixation","","","",""
"692","img/60_210.png","74","image-keyboard-response","343","555489","0.0-6.0-1.168","MAGA","4","f","rechts","24","","","self","j","60","true"
"null","<div style=""font-size:60px;"">+</div>","null","html-keyboard-response","344","555991","0.0-6.0-0.169","MAGA","4","f","rechts","24","","fixation","","","",""
"555","img/30_90.png","74","image-keyboard-response","345","556547","0.0-6.0-1.169","MAGA","4","f","rechts","24","","","self","j","30","true"
"null","<div style=""font-size:60px;"">+</div>","null","html-keyboard-response","346","556848","0.0-6.0-0.170","MAGA","4","f","rechts","24","","fixation","","","",""
"562","img/0_60.png","74","image-keyboard-response","347","557411","0.0-6.0-1.170","MAGA","4","f","rechts","24","","","self","j","0","true"
"null","<div style=""font-size:60px;"">+</div>","null","html-keyboard-response","348","557762","0.0-6.0-0.171","MAGA","4","f","rechts","24","","fixation","","","",""
"820","img/30_120.png","74","image-keyboard-response","349","558583","0.0-6.0-1.171","MAGA","4","f","rechts","24","","","self","j","30","true"
"null","<div style=""font-size:60px;"">+</div>","null","html-keyboard-response","350","559034","0.0-6.0-0.172","MAGA","4","f","rechts","24","","fixation","","","",""
"493","img/0_300.png","70","image-keyboard-response","351","559528","0.0-6.0-1.172","MAGA","4","f","rechts","24","","","self","f","0","true"
"null","<div style=""font-size:60px;"">+</div>","null","html-keyboard-response","352","559929","0.0-6.0-0.173","MAGA","4","f","rechts","24","","fixation","","","",""
"517","img/L60_180.png","70","image-keyboard-response","353","560448","0.0-6.0-1.173","MAGA","4","f","rechts","24","","","self","f","60","true"
"null","<div style=""font-size:60px;"">+</div>","null","html-keyboard-response","354","560949","0.0-6.0-0.174","MAGA","4","f","rechts","24","","fixation","","","",""
"597","img/150_180.png","74","image-keyboard-response","355","561548","0.0-6.0-1.174","MAGA","4","f","rechts","24","","","self","j","150","true"
"null","<div style=""font-size:60px;"">+</div>","null","html-keyboard-response","356","562049","0.0-6.0-0.175","MAGA","4","f","rechts","24","","fixation","","","",""
"546","img/150_270.png","74","image-keyboard-response","357","562597","0.0-6.0-1.175","MAGA","4","f","rechts","24","","","self","j","150","true"
"null","<div style=""font-size:60px;"">+</div>","null","html-keyboard-response","358","562898","0.0-6.0-0.176","MAGA","4","f","rechts","24","","fixation","","","",""
"643","img/60_90.png","74","image-keyboard-response","359","563543","0.0-6.0-1.176","MAGA","4","f","rechts","24","","","self","j","60","true"
"null","<div style=""font-size:60px;"">+</div>","null","html-keyboard-response","360","563994","0.0-6.0-0.177","MAGA","4","f","rechts","24","","fixation","","","",""
"618","img/60_330.png","70","image-keyboard-response","361","564614","0.0-6.0-1.177","MAGA","4","f","rechts","24","","","self","f","60","true"
"null","<div style=""font-size:60px;"">+</div>","null","html-keyboard-response","362","564966","0.0-6.0-0.178","MAGA","4","f","rechts","24","","fixation","","","",""
"894","img/150_60.png","70","image-keyboard-response","363","565861","0.0-6.0-1.178","MAGA","4","f","rechts","24","","","self","f","150","true"
"null","<div style=""font-size:60px;"">+</div>","null","html-keyboard-response","364","566362","0.0-6.0-0.179","MAGA","4","f","rechts","24","","fixation","","","",""
"521","img/0_210.png","70","image-keyboard-response","365","566885","0.0-6.0-1.179","MAGA","4","f","rechts","24","","","self","f","0","true"
"null","<div style=""font-size:60px;"">+</div>","null","html-keyboard-response","366","567286","0.0-6.0-0.180","MAGA","4","f","rechts","24","","fixation","","","",""
"560","img/60_270.png","70","image-keyboard-response","367","567847","0.0-6.0-1.180","MAGA","4","f","rechts","24","","","self","f","60","true"
"null","<div style=""font-size:60px;"">+</div>","null","html-keyboard-response","368","568299","0.0-6.0-0.181","MAGA","4","f","rechts","24","","fixation","","","",""
"554","img/150_90.png","70","image-keyboard-response","369","568855","0.0-6.0-1.181","MAGA","4","f","rechts","24","","","self","f","150","true"
"null","<div style=""font-size:60px;"">+</div>","null","html-keyboard-response","370","569156","0.0-6.0-0.182","MAGA","4","f","rechts","24","","fixation","","","",""
"491","img/120_150.png","70","image-keyboard-response","371","569648","0.0-6.0-1.182","MAGA","4","f","rechts","24","","","self","f","120","true"
"null","<div style=""font-size:60px;"">+</div>","null","html-keyboard-response","372","570000","0.0-6.0-0.183","MAGA","4","f","rechts","24","","fixation","","","",""
"496","img/150_120.png","70","image-keyboard-response","373","570498","0.0-6.0-1.183","MAGA","4","f","rechts","24","","","self","f","150","true"
"null","<div style=""font-size:60px;"">+</div>","null","html-keyboard-response","374","570999","0.0-6.0-0.184","MAGA","4","f","rechts","24","","fixation","","","",""
"587","img/60_180.png","74","image-keyboard-response","375","571587","0.0-6.0-1.184","MAGA","4","f","rechts","24","","","self","j","60","true"
"null","<div style=""font-size:60px;"">+</div>","null","html-keyboard-response","376","571889","0.0-6.0-0.185","MAGA","4","f","rechts","24","","fixation","","","",""
"558","img/L120_180.png","70","image-keyboard-response","377","572448","0.0-6.0-1.185","MAGA","4","f","rechts","24","","","self","f","120","true"
"null","<div style=""font-size:60px;"">+</div>","null","html-keyboard-response","378","572750","0.0-6.0-0.186","MAGA","4","f","rechts","24","","fixation","","","",""
"532","img/30_180.png","74","image-keyboard-response","379","573283","0.0-6.0-1.186","MAGA","4","f","rechts","24","","","self","j","30","true"
"null","<div style=""font-size:60px;"">+</div>","null","html-keyboard-response","380","573735","0.0-6.0-0.187","MAGA","4","f","rechts","24","","fixation","","","",""
"690","img/90_60.png","74","image-keyboard-response","381","574426","0.0-6.0-1.187","MAGA","4","f","rechts","24","","","self","j","90","true"
"null","<div style=""font-size:60px;"">+</div>","null","html-keyboard-response","382","574878","0.0-6.0-0.188","MAGA","4","f","rechts","24","","fixation","","","",""
"629","img/L30_180.png","70","image-keyboard-response","383","575508","0.0-6.0-1.188","MAGA","4","f","rechts","24","","","self","f","30","true"
"null","<div style=""font-size:60px;"">+</div>","null","html-keyboard-response","384","576010","0.0-6.0-0.189","MAGA","4","f","rechts","24","","fixation","","","",""
"568","img/120_90.png","70","image-keyboard-response","385","576578","0.0-6.0-1.189","MAGA","4","f","rechts","24","","","self","f","120","true"
"null","<div style=""font-size:60px;"">+</div>","null","html-keyboard-response","386","576880","0.0-6.0-0.190","MAGA","4","f","rechts","24","","fixation","","","",""
"547","img/90_180.png","74","image-keyboard-response","387","577427","0.0-6.0-1.190","MAGA","4","f","rechts","24","","","self","j","90","true"
"null","<div style=""font-size:60px;"">+</div>","null","html-keyboard-response","388","577929","0.0-6.0-0.191","MAGA","4","f","rechts","24","","fixation","","","",""
"503","img/0_330.png","70","image-keyboard-response","389","578433","0.0-6.0-1.191","MAGA","4","f","rechts","24","","","self","f","0","true"
"null","<div style=""font-size:60px;"">+</div>","null","html-keyboard-response","390","578935","0.0-6.0-0.192","MAGA","4","f","rechts","24","","fixation","","","",""
"624","img/150_300.png","74","image-keyboard-response","391","579560","0.0-6.0-1.192","MAGA","4","f","rechts","24","","","self","j","150","true"
"null","<div style=""font-size:60px;"">+</div>","null","html-keyboard-response","392","580012","0.0-6.0-0.193","MAGA","4","f","rechts","24","","fixation","","","",""
"535","img/0_150.png","74","image-keyboard-response","393","580547","0.0-6.0-1.193","MAGA","4","f","rechts","24","","","self","j","0","true"
"null","<div style=""font-size:60px;"">+</div>","null","html-keyboard-response","394","580898","0.0-6.0-0.194","MAGA","4","f","rechts","24","","fixation","","","",""
"758","img/90_30.png","74","image-keyboard-response","395","581657","0.0-6.0-1.194","MAGA","4","f","rechts","24","","","self","j","90","true"
"null","<div style=""font-size:60px;"">+</div>","null","html-keyboard-response","396","582159","0.0-6.0-0.195","MAGA","4","f","rechts","24","","fixation","","","",""
"538","img/0_270.png","70","image-keyboard-response","397","582698","0.0-6.0-1.195","MAGA","4","f","rechts","24","","","self","f","0","true"
"null","<div style=""font-size:60px;"">+</div>","null","html-keyboard-response","398","583150","0.0-6.0-0.196","MAGA","4","f","rechts","24","","fixation","","","",""
"900","img/120_30.png","74","image-keyboard-response","399","584050","0.0-6.0-1.196","MAGA","4","f","rechts","24","","","self","j","120","true"
"null","<div style=""font-size:60px;"">+</div>","null","html-keyboard-response","400","584502","0.0-6.0-0.197","MAGA","4","f","rechts","24","","fixation","","","",""
"538","img/L90_180.png","70","image-keyboard-response","401","585041","0.0-6.0-1.197","MAGA","4","f","rechts","24","","","self","f","90","true"
"null","<div style=""font-size:60px;"">+</div>","null","html-keyboard-response","402","585493","0.0-6.0-0.198","MAGA","4","f","rechts","24","","fixation","","","",""
"565","img/30_240.png","70","image-keyboard-response","403","586059","0.0-6.0-1.198","MAGA","4","f","rechts","24","","","self","f","30","true"
"null","<div style=""font-size:60px;"">+</div>","null","html-keyboard-response","404","586361","0.0-6.0-0.199","MAGA","4","f","rechts","24","","fixation","","","",""
"620","img/0_30.png","74","image-keyboard-response","405","586981","0.0-6.0-1.199","MAGA","4","f","rechts","24","","","self","j","0","true"
"null","<div style=""font-size:60px;"">+</div>","null","html-keyboard-response","406","587383","0.0-6.0-0.200","MAGA","4","f","rechts","24","","fixation","","","",""
"537","img/30_60.png","74","image-keyboard-response","407","587920","0.0-6.0-1.200","MAGA","4","f","rechts","24","","","self","j","30","true"
"null","<div style=""font-size:60px;"">+</div>","null","html-keyboard-response","408","588322","0.0-6.0-0.201","MAGA","4","f","rechts","24","","fixation","","","",""
"584","img/60_30.png","74","image-keyboard-response","409","588907","0.0-6.0-1.201","MAGA","4","f","rechts","24","","","self","j","60","true"
"null","<div style=""font-size:60px;"">+</div>","null","html-keyboard-response","410","589209","0.0-6.0-0.202","MAGA","4","f","rechts","24","","fixation","","","",""
"581","img/0_120.png","74","image-keyboard-response","411","589791","0.0-6.0-1.202","MAGA","4","f","rechts","24","","","self","j","0","true"
"null","<div style=""font-size:60px;"">+</div>","null","html-keyboard-response","412","590193","0.0-6.0-0.203","MAGA","4","f","rechts","24","","fixation","","","",""
"564","img/30_270.png","70","image-keyboard-response","413","590757","0.0-6.0-1.203","MAGA","4","f","rechts","24","","","self","f","30","true"
"null","<div style=""font-size:60px;"">+</div>","null","html-keyboard-response","414","591208","0.0-6.0-0.204","MAGA","4","f","rechts","24","","fixation","","","",""
"507","img/120_180.png","74","image-keyboard-response","415","591716","0.0-6.0-1.204","MAGA","4","f","rechts","24","","","self","j","120","true"
"null","<div style=""font-size:60px;"">+</div>","null","html-keyboard-response","416","592118","0.0-6.0-0.205","MAGA","4","f","rechts","24","","fixation","","","",""
"636","img/30_300.png","70","image-keyboard-response","417","592754","0.0-6.0-1.205","MAGA","4","f","rechts","24","","","self","f","30","true"
"null","<div style=""font-size:60px;"">+</div>","null","html-keyboard-response","418","593106","0.0-6.0-0.206","MAGA","4","f","rechts","24","","fixation","","","",""
"705","img/60_150.png","70","image-keyboard-response","419","593812","0.0-6.0-1.206","MAGA","4","f","rechts","24","","","self","f","60","true"
"null","<div style=""font-size:60px;"">+</div>","null","html-keyboard-response","420","594214","0.0-6.0-0.207","MAGA","4","f","rechts","24","","fixation","","","",""
"549","img/90_150.png","70","image-keyboard-response","421","594763","0.0-6.0-1.207","MAGA","4","f","rechts","24","","","self","f","90","true"
"15725","<p>Du hast in 97% der Versuche korrekt entschieden.</p><p>Deine durchschnittliche Reaktionszeit war  626ms.</p><p>Dr&uuml;cke eine beliebige Taste, um die Session zu beenden. Vielen Dank!</p>","66","html-keyboard-response","422","610490","0.0-7.0","MAGA","4","f","rechts","24","","","","","",""
