"rt","stimulus","key_press","trial_type","trial_index","time_elapsed","internal_node_id","subject","session","sex","handedness","age","responses","test_part","condition","correct_response","angle","correct"
"14685","<p>Mental Rotation Experiment.</p> <p>Dr&uuml;cke eine beliebige Taste, um anzufangen.</p>","74","html-keyboard-response","0","14690","0.0-0.0","DIGA","4","m","rechts","58","","","","","",""
"4906","","","survey-text","1","19597","0.0-1.0","DIGA","4","m","rechts","58","{""Q0"":""DIGA""}","","","","",""
"3460","","","survey-text","2","23059","0.0-2.0","DIGA","4","m","rechts","58","{""Q0"":""4""}","","","","",""
"3340","","","survey-multi-choice","3","26402","0.0-3.0","DIGA","4","m","rechts","58","{""Q0"":""m"",""Q1"":""rechts""}","","","","",""
"2706","","","survey-text","4","29108","0.0-4.0","DIGA","4","m","rechts","58","{""Q0"":""58""}","","","","",""
"69156","<p>Stell dir vor, dass du vor einem runden Tisch stehst, auf dem sich ein blauer Ball am Tischrand befindet. Entlang des Tischrands ist jeweils ein verschieden langer Pfeil. Nun bleibst du an deinem Platz vor dem Tisch und rotierst den Tisch entlang des Pfeils (gleiche Richtung und Länge). </p> <img src='img/30_180.png'></img> <br><p> Nachdem du diese (vorgestellte) Rotation durchgef&uuml;hrt hast, schau in Richtung der Tischmitte, und entscheide dann, ob der Ball links oder rechts von dir liegt.</p> <p>Dr&uuml;cke die <strong>'f'</strong>-Taste f&uuml;r links, die <strong>'j'</strong>-Taste f&uuml;r rechts.</p><br><p> Das Bild wird jeweils 1 Sekunde lang pr&auml;sentiert. Du hast 3 Sekunden Zeit eine Entscheidung zu treffen.</p>","70","html-keyboard-response","5","98266","0.0-5.0","DIGA","4","m","rechts","58","","","","","",""
"null","<div style=""font-size:60px;"">+</div>","null","html-keyboard-response","6","99677","0.0-6.0-0.0","DIGA","4","m","rechts","58","","fixation","","","",""
"1652","img/120_180.png","70","image-keyboard-response","7","101330","0.0-6.0-1.0","DIGA","4","m","rechts","58","","","object","f","120","true"
"null","<div style=""font-size:60px;"">+</div>","null","html-keyboard-response","8","101634","0.0-6.0-0.1","DIGA","4","m","rechts","58","","fixation","","","",""
"1542","img/90_60.png","70","image-keyboard-response","9","103177","0.0-6.0-1.1","DIGA","4","m","rechts","58","","","object","f","90","true"
"null","<div style=""font-size:60px;"">+</div>","null","html-keyboard-response","10","103579","0.0-6.0-0.2","DIGA","4","m","rechts","58","","fixation","","","",""
"1425","img/0_210.png","70","image-keyboard-response","11","105004","0.0-6.0-1.2","DIGA","4","m","rechts","58","","","object","f","0","true"
"null","<div style=""font-size:60px;"">+</div>","null","html-keyboard-response","12","105460","0.0-6.0-0.3","DIGA","4","m","rechts","58","","fixation","","","",""
"1402","img/90_30.png","70","image-keyboard-response","13","106864","0.0-6.0-1.3","DIGA","4","m","rechts","58","","","object","f","90","true"
"null","<div style=""font-size:60px;"">+</div>","null","html-keyboard-response","14","107218","0.0-6.0-0.4","DIGA","4","m","rechts","58","","fixation","","","",""
"1325","img/L60_180.png","74","image-keyboard-response","15","108543","0.0-6.0-1.4","DIGA","4","m","rechts","58","","","object","j","60","true"
"null","<div style=""font-size:60px;"">+</div>","null","html-keyboard-response","16","108999","0.0-6.0-0.5","DIGA","4","m","rechts","58","","fixation","","","",""
"1352","img/30_90.png","74","image-keyboard-response","17","110351","0.0-6.0-1.5","DIGA","4","m","rechts","58","","","object","j","30","true"
"null","<div style=""font-size:60px;"">+</div>","null","html-keyboard-response","18","110654","0.0-6.0-0.6","DIGA","4","m","rechts","58","","fixation","","","",""
"1432","img/60_330.png","74","image-keyboard-response","19","112087","0.0-6.0-1.6","DIGA","4","m","rechts","58","","","object","j","60","true"
"null","<div style=""font-size:60px;"">+</div>","null","html-keyboard-response","20","112441","0.0-6.0-0.7","DIGA","4","m","rechts","58","","fixation","","","",""
"1878","img/60_90.png","74","image-keyboard-response","21","114319","0.0-6.0-1.7","DIGA","4","m","rechts","58","","","object","j","60","true"
"null","<div style=""font-size:60px;"">+</div>","null","html-keyboard-response","22","114725","0.0-6.0-0.8","DIGA","4","m","rechts","58","","fixation","","","",""
"1367","img/0_60.png","74","image-keyboard-response","23","116093","0.0-6.0-1.8","DIGA","4","m","rechts","58","","","object","j","0","true"
"null","<div style=""font-size:60px;"">+</div>","null","html-keyboard-response","24","116498","0.0-6.0-0.9","DIGA","4","m","rechts","58","","fixation","","","",""
"1938","img/120_270.png","70","image-keyboard-response","25","118437","0.0-6.0-1.9","DIGA","4","m","rechts","58","","","object","j","120","false"
"null","<div style=""font-size:60px;"">+</div>","null","html-keyboard-response","26","118843","0.0-6.0-0.10","DIGA","4","m","rechts","58","","fixation","","","",""
"1079","img/0_150.png","74","image-keyboard-response","27","119924","0.0-6.0-1.10","DIGA","4","m","rechts","58","","","object","j","0","true"
"null","<div style=""font-size:60px;"">+</div>","null","html-keyboard-response","28","120329","0.0-6.0-0.11","DIGA","4","m","rechts","58","","fixation","","","",""
"1419","img/60_150.png","74","image-keyboard-response","29","121750","0.0-6.0-1.11","DIGA","4","m","rechts","58","","","object","j","60","true"
"null","<div style=""font-size:60px;"">+</div>","null","html-keyboard-response","30","122206","0.0-6.0-0.12","DIGA","4","m","rechts","58","","fixation","","","",""
"1150","img/0_120.png","74","image-keyboard-response","31","123357","0.0-6.0-1.12","DIGA","4","m","rechts","58","","","object","j","0","true"
"null","<div style=""font-size:60px;"">+</div>","null","html-keyboard-response","32","123713","0.0-6.0-0.13","DIGA","4","m","rechts","58","","fixation","","","",""
"1496","img/90_300.png","70","image-keyboard-response","33","125209","0.0-6.0-1.13","DIGA","4","m","rechts","58","","","object","j","90","false"
"null","<div style=""font-size:60px;"">+</div>","null","html-keyboard-response","34","125611","0.0-6.0-0.14","DIGA","4","m","rechts","58","","fixation","","","",""
"1685","img/150_180.png","70","image-keyboard-response","35","127297","0.0-6.0-1.14","DIGA","4","m","rechts","58","","","object","f","150","true"
"null","<div style=""font-size:60px;"">+</div>","null","html-keyboard-response","36","127801","0.0-6.0-0.15","DIGA","4","m","rechts","58","","fixation","","","",""
"1016","img/0_330.png","70","image-keyboard-response","37","128818","0.0-6.0-1.15","DIGA","4","m","rechts","58","","","object","f","0","true"
"null","<div style=""font-size:60px;"">+</div>","null","html-keyboard-response","38","129224","0.0-6.0-0.16","DIGA","4","m","rechts","58","","fixation","","","",""
"1926","img/60_210.png","70","image-keyboard-response","39","131152","0.0-6.0-1.16","DIGA","4","m","rechts","58","","","object","f","60","true"
"null","<div style=""font-size:60px;"">+</div>","null","html-keyboard-response","40","131456","0.0-6.0-0.17","DIGA","4","m","rechts","58","","fixation","","","",""
"1417","img/150_300.png","74","image-keyboard-response","41","132874","0.0-6.0-1.17","DIGA","4","m","rechts","58","","","object","j","150","true"
"null","<div style=""font-size:60px;"">+</div>","null","html-keyboard-response","42","133227","0.0-6.0-0.18","DIGA","4","m","rechts","58","","fixation","","","",""
"1428","img/60_30.png","70","image-keyboard-response","43","134655","0.0-6.0-1.18","DIGA","4","m","rechts","58","","","object","f","60","true"
"null","<div style=""font-size:60px;"">+</div>","null","html-keyboard-response","44","135062","0.0-6.0-0.19","DIGA","4","m","rechts","58","","fixation","","","",""
"1344","img/90_150.png","74","image-keyboard-response","45","136407","0.0-6.0-1.19","DIGA","4","m","rechts","58","","","object","j","90","true"
"null","<div style=""font-size:60px;"">+</div>","null","html-keyboard-response","46","136763","0.0-6.0-0.20","DIGA","4","m","rechts","58","","fixation","","","",""
"1047","img/0_30.png","74","image-keyboard-response","47","137811","0.0-6.0-1.20","DIGA","4","m","rechts","58","","","object","j","0","true"
"null","<div style=""font-size:60px;"">+</div>","null","html-keyboard-response","48","138168","0.0-6.0-0.21","DIGA","4","m","rechts","58","","fixation","","","",""
"2415","img/90_120.png","70","image-keyboard-response","49","140583","0.0-6.0-1.21","DIGA","4","m","rechts","58","","","object","j","90","false"
"null","<div style=""font-size:60px;"">+</div>","null","html-keyboard-response","50","141035","0.0-6.0-0.22","DIGA","4","m","rechts","58","","fixation","","","",""
"1266","img/120_30.png","70","image-keyboard-response","51","142301","0.0-6.0-1.22","DIGA","4","m","rechts","58","","","object","f","120","true"
"null","<div style=""font-size:60px;"">+</div>","null","html-keyboard-response","52","142652","0.0-6.0-0.23","DIGA","4","m","rechts","58","","fixation","","","",""
"1193","img/0_240.png","70","image-keyboard-response","53","143847","0.0-6.0-1.23","DIGA","4","m","rechts","58","","","object","f","0","true"
"null","<div style=""font-size:60px;"">+</div>","null","html-keyboard-response","54","144150","0.0-6.0-0.24","DIGA","4","m","rechts","58","","fixation","","","",""
"1382","img/30_120.png","74","image-keyboard-response","55","145532","0.0-6.0-1.24","DIGA","4","m","rechts","58","","","object","j","30","true"
"null","<div style=""font-size:60px;"">+</div>","null","html-keyboard-response","56","145989","0.0-6.0-0.25","DIGA","4","m","rechts","58","","fixation","","","",""
"998","img/0_300.png","70","image-keyboard-response","57","146987","0.0-6.0-1.25","DIGA","4","m","rechts","58","","","object","f","0","true"
"null","<div style=""font-size:60px;"">+</div>","null","html-keyboard-response","58","147342","0.0-6.0-0.26","DIGA","4","m","rechts","58","","fixation","","","",""
"1471","img/120_150.png","74","image-keyboard-response","59","148813","0.0-6.0-1.26","DIGA","4","m","rechts","58","","","object","j","120","true"
"null","<div style=""font-size:60px;"">+</div>","null","html-keyboard-response","60","149316","0.0-6.0-0.27","DIGA","4","m","rechts","58","","fixation","","","",""
"1153","img/0_270.png","70","image-keyboard-response","61","150470","0.0-6.0-1.27","DIGA","4","m","rechts","58","","","object","f","0","true"
"null","<div style=""font-size:60px;"">+</div>","null","html-keyboard-response","62","150924","0.0-6.0-0.28","DIGA","4","m","rechts","58","","fixation","","","",""
"1427","img/150_270.png","74","image-keyboard-response","63","152352","0.0-6.0-1.28","DIGA","4","m","rechts","58","","","object","j","150","true"
"null","<div style=""font-size:60px;"">+</div>","null","html-keyboard-response","64","152803","0.0-6.0-0.29","DIGA","4","m","rechts","58","","fixation","","","",""
"1590","img/60_180.png","70","image-keyboard-response","65","154395","0.0-6.0-1.29","DIGA","4","m","rechts","58","","","object","f","60","true"
"null","<div style=""font-size:60px;"">+</div>","null","html-keyboard-response","66","154800","0.0-6.0-0.30","DIGA","4","m","rechts","58","","fixation","","","",""
"1256","img/L30_180.png","74","image-keyboard-response","67","156057","0.0-6.0-1.30","DIGA","4","m","rechts","58","","","object","j","30","true"
"null","<div style=""font-size:60px;"">+</div>","null","html-keyboard-response","68","156361","0.0-6.0-0.31","DIGA","4","m","rechts","58","","fixation","","","",""
"2066","img/150_60.png","70","image-keyboard-response","69","158431","0.0-6.0-1.31","DIGA","4","m","rechts","58","","","object","f","150","true"
"null","<div style=""font-size:60px;"">+</div>","null","html-keyboard-response","70","158886","0.0-6.0-0.32","DIGA","4","m","rechts","58","","fixation","","","",""
"1397","img/90_180.png","70","image-keyboard-response","71","160284","0.0-6.0-1.32","DIGA","4","m","rechts","58","","","object","f","90","true"
"null","<div style=""font-size:60px;"">+</div>","null","html-keyboard-response","72","160587","0.0-6.0-0.33","DIGA","4","m","rechts","58","","fixation","","","",""
"1407","img/L150_180.png","74","image-keyboard-response","73","161995","0.0-6.0-1.33","DIGA","4","m","rechts","58","","","object","j","150","true"
"null","<div style=""font-size:60px;"">+</div>","null","html-keyboard-response","74","162398","0.0-6.0-0.34","DIGA","4","m","rechts","58","","fixation","","","",""
"1172","img/90_210.png","70","image-keyboard-response","75","163571","0.0-6.0-1.34","DIGA","4","m","rechts","58","","","object","f","90","true"
"null","<div style=""font-size:60px;"">+</div>","null","html-keyboard-response","76","164076","0.0-6.0-0.35","DIGA","4","m","rechts","58","","fixation","","","",""
"1459","img/150_240.png","74","image-keyboard-response","77","165535","0.0-6.0-1.35","DIGA","4","m","rechts","58","","","object","j","150","true"
"null","<div style=""font-size:60px;"">+</div>","null","html-keyboard-response","78","165939","0.0-6.0-0.36","DIGA","4","m","rechts","58","","fixation","","","",""
"1114","img/0_90.png","74","image-keyboard-response","79","167054","0.0-6.0-1.36","DIGA","4","m","rechts","58","","","object","j","0","true"
"null","<div style=""font-size:60px;"">+</div>","null","html-keyboard-response","80","167360","0.0-6.0-0.37","DIGA","4","m","rechts","58","","fixation","","","",""
"1434","img/30_240.png","70","image-keyboard-response","81","168796","0.0-6.0-1.37","DIGA","4","m","rechts","58","","","object","f","30","true"
"null","<div style=""font-size:60px;"">+</div>","null","html-keyboard-response","82","169247","0.0-6.0-0.38","DIGA","4","m","rechts","58","","fixation","","","",""
"2013","img/120_330.png","74","image-keyboard-response","83","171260","0.0-6.0-1.38","DIGA","4","m","rechts","58","","","object","j","120","true"
"null","<div style=""font-size:60px;"">+</div>","null","html-keyboard-response","84","171666","0.0-6.0-0.39","DIGA","4","m","rechts","58","","fixation","","","",""
"1798","img/30_300.png","70","image-keyboard-response","85","173464","0.0-6.0-1.39","DIGA","4","m","rechts","58","","","object","f","30","true"
"null","<div style=""font-size:60px;"">+</div>","null","html-keyboard-response","86","173768","0.0-6.0-0.40","DIGA","4","m","rechts","58","","fixation","","","",""
"1529","img/L120_180.png","74","image-keyboard-response","87","175298","0.0-6.0-1.40","DIGA","4","m","rechts","58","","","object","j","120","true"
"null","<div style=""font-size:60px;"">+</div>","null","html-keyboard-response","88","175753","0.0-6.0-0.41","DIGA","4","m","rechts","58","","fixation","","","",""
"1559","img/150_90.png","70","image-keyboard-response","89","177313","0.0-6.0-1.41","DIGA","4","m","rechts","58","","","object","f","150","true"
"null","<div style=""font-size:60px;"">+</div>","null","html-keyboard-response","90","177718","0.0-6.0-0.42","DIGA","4","m","rechts","58","","fixation","","","",""
"2380","img/L90_180.png","74","image-keyboard-response","91","180099","0.0-6.0-1.42","DIGA","4","m","rechts","58","","","object","j","90","true"
"null","<div style=""font-size:60px;"">+</div>","null","html-keyboard-response","92","180605","0.0-6.0-0.43","DIGA","4","m","rechts","58","","fixation","","","",""
"1470","img/150_120.png","70","image-keyboard-response","93","182077","0.0-6.0-1.43","DIGA","4","m","rechts","58","","","object","f","150","true"
"null","<div style=""font-size:60px;"">+</div>","null","html-keyboard-response","94","182432","0.0-6.0-0.44","DIGA","4","m","rechts","58","","fixation","","","",""
"2002","img/60_270.png","70","image-keyboard-response","95","184434","0.0-6.0-1.44","DIGA","4","m","rechts","58","","","object","f","60","true"
"null","<div style=""font-size:60px;"">+</div>","null","html-keyboard-response","96","184738","0.0-6.0-0.45","DIGA","4","m","rechts","58","","fixation","","","",""
"1654","img/30_60.png","74","image-keyboard-response","97","186393","0.0-6.0-1.45","DIGA","4","m","rechts","58","","","object","j","30","true"
"null","<div style=""font-size:60px;"">+</div>","null","html-keyboard-response","98","186843","0.0-6.0-0.46","DIGA","4","m","rechts","58","","fixation","","","",""
"1456","img/90_330.png","74","image-keyboard-response","99","188299","0.0-6.0-1.46","DIGA","4","m","rechts","58","","","object","j","90","true"
"null","<div style=""font-size:60px;"">+</div>","null","html-keyboard-response","100","188802","0.0-6.0-0.47","DIGA","4","m","rechts","58","","fixation","","","",""
"1417","img/120_210.png","70","image-keyboard-response","101","190219","0.0-6.0-1.47","DIGA","4","m","rechts","58","","","object","f","120","true"
"null","<div style=""font-size:60px;"">+</div>","null","html-keyboard-response","102","190723","0.0-6.0-0.48","DIGA","4","m","rechts","58","","fixation","","","",""
"1757","img/90_240.png","70","image-keyboard-response","103","192482","0.0-6.0-1.48","DIGA","4","m","rechts","58","","","object","f","90","true"
"null","<div style=""font-size:60px;"">+</div>","null","html-keyboard-response","104","192835","0.0-6.0-0.49","DIGA","4","m","rechts","58","","fixation","","","",""
"1915","img/120_90.png","70","image-keyboard-response","105","194750","0.0-6.0-1.49","DIGA","4","m","rechts","58","","","object","f","120","true"
"null","<div style=""font-size:60px;"">+</div>","null","html-keyboard-response","106","195204","0.0-6.0-0.50","DIGA","4","m","rechts","58","","fixation","","","",""
"2163","img/30_180.png","70","image-keyboard-response","107","197367","0.0-6.0-1.50","DIGA","4","m","rechts","58","","","object","f","30","true"
"null","<div style=""font-size:60px;"">+</div>","null","html-keyboard-response","108","197868","0.0-6.0-0.51","DIGA","4","m","rechts","58","","fixation","","","",""
"1533","img/30_270.png","70","image-keyboard-response","109","199403","0.0-6.0-1.51","DIGA","4","m","rechts","58","","","object","f","30","true"
"null","<div style=""font-size:60px;"">+</div>","null","html-keyboard-response","110","199709","0.0-6.0-0.52","DIGA","4","m","rechts","58","","fixation","","","",""
"1855","img/120_150.png","70","image-keyboard-response","111","201564","0.0-6.0-1.52","DIGA","4","m","rechts","58","","","object","j","120","false"
"null","<div style=""font-size:60px;"">+</div>","null","html-keyboard-response","112","201919","0.0-6.0-0.53","DIGA","4","m","rechts","58","","fixation","","","",""
"1498","img/150_270.png","74","image-keyboard-response","113","203418","0.0-6.0-1.53","DIGA","4","m","rechts","58","","","object","j","150","true"
"null","<div style=""font-size:60px;"">+</div>","null","html-keyboard-response","114","203772","0.0-6.0-0.54","DIGA","4","m","rechts","58","","fixation","","","",""
"1493","img/30_60.png","74","image-keyboard-response","115","205267","0.0-6.0-1.54","DIGA","4","m","rechts","58","","","object","j","30","true"
"null","<div style=""font-size:60px;"">+</div>","null","html-keyboard-response","116","205672","0.0-6.0-0.55","DIGA","4","m","rechts","58","","fixation","","","",""
"1632","img/120_90.png","70","image-keyboard-response","117","207305","0.0-6.0-1.55","DIGA","4","m","rechts","58","","","object","f","120","true"
"null","<div style=""font-size:60px;"">+</div>","null","html-keyboard-response","118","207661","0.0-6.0-0.56","DIGA","4","m","rechts","58","","fixation","","","",""
"1440","img/150_60.png","70","image-keyboard-response","119","209101","0.0-6.0-1.56","DIGA","4","m","rechts","58","","","object","f","150","true"
"null","<div style=""font-size:60px;"">+</div>","null","html-keyboard-response","120","209557","0.0-6.0-0.57","DIGA","4","m","rechts","58","","fixation","","","",""
"1468","img/150_120.png","70","image-keyboard-response","121","211026","0.0-6.0-1.57","DIGA","4","m","rechts","58","","","object","f","150","true"
"null","<div style=""font-size:60px;"">+</div>","null","html-keyboard-response","122","211531","0.0-6.0-0.58","DIGA","4","m","rechts","58","","fixation","","","",""
"1445","img/90_210.png","70","image-keyboard-response","123","212976","0.0-6.0-1.58","DIGA","4","m","rechts","58","","","object","f","90","true"
"null","<div style=""font-size:60px;"">+</div>","null","html-keyboard-response","124","213428","0.0-6.0-0.59","DIGA","4","m","rechts","58","","fixation","","","",""
"1138","img/L90_180.png","74","image-keyboard-response","125","214566","0.0-6.0-1.59","DIGA","4","m","rechts","58","","","object","j","90","true"
"null","<div style=""font-size:60px;"">+</div>","null","html-keyboard-response","126","215072","0.0-6.0-0.60","DIGA","4","m","rechts","58","","fixation","","","",""
"1178","img/90_30.png","70","image-keyboard-response","127","216250","0.0-6.0-1.60","DIGA","4","m","rechts","58","","","object","f","90","true"
"null","<div style=""font-size:60px;"">+</div>","null","html-keyboard-response","128","216551","0.0-6.0-0.61","DIGA","4","m","rechts","58","","fixation","","","",""
"1410","img/90_150.png","74","image-keyboard-response","129","217963","0.0-6.0-1.61","DIGA","4","m","rechts","58","","","object","j","90","true"
"null","<div style=""font-size:60px;"">+</div>","null","html-keyboard-response","130","218316","0.0-6.0-0.62","DIGA","4","m","rechts","58","","fixation","","","",""
"1248","img/30_180.png","70","image-keyboard-response","131","219564","0.0-6.0-1.62","DIGA","4","m","rechts","58","","","object","f","30","true"
"null","<div style=""font-size:60px;"">+</div>","null","html-keyboard-response","132","220065","0.0-6.0-0.63","DIGA","4","m","rechts","58","","fixation","","","",""
"1245","img/0_120.png","74","image-keyboard-response","133","221311","0.0-6.0-1.63","DIGA","4","m","rechts","58","","","object","j","0","true"
"null","<div style=""font-size:60px;"">+</div>","null","html-keyboard-response","134","221816","0.0-6.0-0.64","DIGA","4","m","rechts","58","","fixation","","","",""
"1456","img/150_240.png","74","image-keyboard-response","135","223272","0.0-6.0-1.64","DIGA","4","m","rechts","58","","","object","j","150","true"
"null","<div style=""font-size:60px;"">+</div>","null","html-keyboard-response","136","223772","0.0-6.0-0.65","DIGA","4","m","rechts","58","","fixation","","","",""
"1369","img/L60_180.png","74","image-keyboard-response","137","225142","0.0-6.0-1.65","DIGA","4","m","rechts","58","","","object","j","60","true"
"null","<div style=""font-size:60px;"">+</div>","null","html-keyboard-response","138","225649","0.0-6.0-0.66","DIGA","4","m","rechts","58","","fixation","","","",""
"1270","img/0_210.png","70","image-keyboard-response","139","226920","0.0-6.0-1.66","DIGA","4","m","rechts","58","","","object","f","0","true"
"null","<div style=""font-size:60px;"">+</div>","null","html-keyboard-response","140","227324","0.0-6.0-0.67","DIGA","4","m","rechts","58","","fixation","","","",""
"1555","img/60_270.png","70","image-keyboard-response","141","228880","0.0-6.0-1.67","DIGA","4","m","rechts","58","","","object","f","60","true"
"null","<div style=""font-size:60px;"">+</div>","null","html-keyboard-response","142","229236","0.0-6.0-0.68","DIGA","4","m","rechts","58","","fixation","","","",""
"1335","img/60_330.png","74","image-keyboard-response","143","230572","0.0-6.0-1.68","DIGA","4","m","rechts","58","","","object","j","60","true"
"null","<div style=""font-size:60px;"">+</div>","null","html-keyboard-response","144","230975","0.0-6.0-0.69","DIGA","4","m","rechts","58","","fixation","","","",""
"1300","img/0_150.png","74","image-keyboard-response","145","232277","0.0-6.0-1.69","DIGA","4","m","rechts","58","","","object","j","0","true"
"null","<div style=""font-size:60px;"">+</div>","null","html-keyboard-response","146","232780","0.0-6.0-0.70","DIGA","4","m","rechts","58","","fixation","","","",""
"1023","img/0_300.png","70","image-keyboard-response","147","233804","0.0-6.0-1.70","DIGA","4","m","rechts","58","","","object","f","0","true"
"null","<div style=""font-size:60px;"">+</div>","null","html-keyboard-response","148","234309","0.0-6.0-0.71","DIGA","4","m","rechts","58","","fixation","","","",""
"1505","img/30_240.png","70","image-keyboard-response","149","235815","0.0-6.0-1.71","DIGA","4","m","rechts","58","","","object","f","30","true"
"null","<div style=""font-size:60px;"">+</div>","null","html-keyboard-response","150","236269","0.0-6.0-0.72","DIGA","4","m","rechts","58","","fixation","","","",""
"1418","img/L120_180.png","74","image-keyboard-response","151","237687","0.0-6.0-1.72","DIGA","4","m","rechts","58","","","object","j","120","true"
"null","<div style=""font-size:60px;"">+</div>","null","html-keyboard-response","152","238038","0.0-6.0-0.73","DIGA","4","m","rechts","58","","fixation","","","",""
"1457","img/30_120.png","70","image-keyboard-response","153","239496","0.0-6.0-1.73","DIGA","4","m","rechts","58","","","object","j","30","false"
"null","<div style=""font-size:60px;"">+</div>","null","html-keyboard-response","154","239849","0.0-6.0-0.74","DIGA","4","m","rechts","58","","fixation","","","",""
"1439","img/90_60.png","70","image-keyboard-response","155","241289","0.0-6.0-1.74","DIGA","4","m","rechts","58","","","object","f","90","true"
"null","<div style=""font-size:60px;"">+</div>","null","html-keyboard-response","156","241695","0.0-6.0-0.75","DIGA","4","m","rechts","58","","fixation","","","",""
"1072","img/120_30.png","70","image-keyboard-response","157","242768","0.0-6.0-1.75","DIGA","4","m","rechts","58","","","object","f","120","true"
"null","<div style=""font-size:60px;"">+</div>","null","html-keyboard-response","158","243222","0.0-6.0-0.76","DIGA","4","m","rechts","58","","fixation","","","",""
"1893","img/L30_180.png","74","image-keyboard-response","159","245115","0.0-6.0-1.76","DIGA","4","m","rechts","58","","","object","j","30","true"
"null","<div style=""font-size:60px;"">+</div>","null","html-keyboard-response","160","245521","0.0-6.0-0.77","DIGA","4","m","rechts","58","","fixation","","","",""
"1197","img/60_30.png","70","image-keyboard-response","161","246719","0.0-6.0-1.77","DIGA","4","m","rechts","58","","","object","f","60","true"
"null","<div style=""font-size:60px;"">+</div>","null","html-keyboard-response","162","247122","0.0-6.0-0.78","DIGA","4","m","rechts","58","","fixation","","","",""
"1335","img/L150_180.png","74","image-keyboard-response","163","248458","0.0-6.0-1.78","DIGA","4","m","rechts","58","","","object","j","150","true"
"null","<div style=""font-size:60px;"">+</div>","null","html-keyboard-response","164","248764","0.0-6.0-0.79","DIGA","4","m","rechts","58","","fixation","","","",""
"1487","img/120_210.png","70","image-keyboard-response","165","250251","0.0-6.0-1.79","DIGA","4","m","rechts","58","","","object","f","120","true"
"null","<div style=""font-size:60px;"">+</div>","null","html-keyboard-response","166","250559","0.0-6.0-0.80","DIGA","4","m","rechts","58","","fixation","","","",""
"1799","img/150_180.png","70","image-keyboard-response","167","252358","0.0-6.0-1.80","DIGA","4","m","rechts","58","","","object","f","150","true"
"null","<div style=""font-size:60px;"">+</div>","null","html-keyboard-response","168","252811","0.0-6.0-0.81","DIGA","4","m","rechts","58","","fixation","","","",""
"1426","img/30_300.png","70","image-keyboard-response","169","254237","0.0-6.0-1.81","DIGA","4","m","rechts","58","","","object","f","30","true"
"null","<div style=""font-size:60px;"">+</div>","null","html-keyboard-response","170","254640","0.0-6.0-0.82","DIGA","4","m","rechts","58","","fixation","","","",""
"1379","img/30_90.png","74","image-keyboard-response","171","256020","0.0-6.0-1.82","DIGA","4","m","rechts","58","","","object","j","30","true"
"null","<div style=""font-size:60px;"">+</div>","null","html-keyboard-response","172","256477","0.0-6.0-0.83","DIGA","4","m","rechts","58","","fixation","","","",""
"1063","img/30_270.png","70","image-keyboard-response","173","257540","0.0-6.0-1.83","DIGA","4","m","rechts","58","","","object","f","30","true"
"null","<div style=""font-size:60px;"">+</div>","null","html-keyboard-response","174","258046","0.0-6.0-0.84","DIGA","4","m","rechts","58","","fixation","","","",""
"1120","img/90_330.png","74","image-keyboard-response","175","259168","0.0-6.0-1.84","DIGA","4","m","rechts","58","","","object","j","90","true"
"null","<div style=""font-size:60px;"">+</div>","null","html-keyboard-response","176","259520","0.0-6.0-0.85","DIGA","4","m","rechts","58","","fixation","","","",""
"1291","img/120_180.png","70","image-keyboard-response","177","260812","0.0-6.0-1.85","DIGA","4","m","rechts","58","","","object","f","120","true"
"null","<div style=""font-size:60px;"">+</div>","null","html-keyboard-response","178","261162","0.0-6.0-0.86","DIGA","4","m","rechts","58","","fixation","","","",""
"2183","img/90_300.png","74","image-keyboard-response","179","263346","0.0-6.0-1.86","DIGA","4","m","rechts","58","","","object","j","90","true"
"null","<div style=""font-size:60px;"">+</div>","null","html-keyboard-response","180","263751","0.0-6.0-0.87","DIGA","4","m","rechts","58","","fixation","","","",""
"1608","img/0_60.png","74","image-keyboard-response","181","265361","0.0-6.0-1.87","DIGA","4","m","rechts","58","","","object","j","0","true"
"null","<div style=""font-size:60px;"">+</div>","null","html-keyboard-response","182","265766","0.0-6.0-0.88","DIGA","4","m","rechts","58","","fixation","","","",""
"1878","img/150_300.png","70","image-keyboard-response","183","267645","0.0-6.0-1.88","DIGA","4","m","rechts","58","","","object","j","150","false"
"null","<div style=""font-size:60px;"">+</div>","null","html-keyboard-response","184","268150","0.0-6.0-0.89","DIGA","4","m","rechts","58","","fixation","","","",""
"1358","img/120_270.png","74","image-keyboard-response","185","269510","0.0-6.0-1.89","DIGA","4","m","rechts","58","","","object","j","120","true"
"null","<div style=""font-size:60px;"">+</div>","null","html-keyboard-response","186","269965","0.0-6.0-0.90","DIGA","4","m","rechts","58","","fixation","","","",""
"1619","img/60_90.png","74","image-keyboard-response","187","271584","0.0-6.0-1.90","DIGA","4","m","rechts","58","","","object","j","60","true"
"null","<div style=""font-size:60px;"">+</div>","null","html-keyboard-response","188","272086","0.0-6.0-0.91","DIGA","4","m","rechts","58","","fixation","","","",""
"1232","img/90_240.png","70","image-keyboard-response","189","273318","0.0-6.0-1.91","DIGA","4","m","rechts","58","","","object","f","90","true"
"null","<div style=""font-size:60px;"">+</div>","null","html-keyboard-response","190","273723","0.0-6.0-0.92","DIGA","4","m","rechts","58","","fixation","","","",""
"1017","img/60_210.png","70","image-keyboard-response","191","274740","0.0-6.0-1.92","DIGA","4","m","rechts","58","","","object","f","60","true"
"null","<div style=""font-size:60px;"">+</div>","null","html-keyboard-response","192","275244","0.0-6.0-0.93","DIGA","4","m","rechts","58","","fixation","","","",""
"874","img/0_240.png","70","image-keyboard-response","193","276118","0.0-6.0-1.93","DIGA","4","m","rechts","58","","","object","f","0","true"
"null","<div style=""font-size:60px;"">+</div>","null","html-keyboard-response","194","276474","0.0-6.0-0.94","DIGA","4","m","rechts","58","","fixation","","","",""
"814","img/0_270.png","70","image-keyboard-response","195","277288","0.0-6.0-1.94","DIGA","4","m","rechts","58","","","object","f","0","true"
"null","<div style=""font-size:60px;"">+</div>","null","html-keyboard-response","196","277689","0.0-6.0-0.95","DIGA","4","m","rechts","58","","fixation","","","",""
"1156","img/60_150.png","74","image-keyboard-response","197","278847","0.0-6.0-1.95","DIGA","4","m","rechts","58","","","object","j","60","true"
"null","<div style=""font-size:60px;"">+</div>","null","html-keyboard-response","198","279250","0.0-6.0-0.96","DIGA","4","m","rechts","58","","fixation","","","",""
"930","img/0_90.png","74","image-keyboard-response","199","280180","0.0-6.0-1.96","DIGA","4","m","rechts","58","","","object","j","0","true"
"null","<div style=""font-size:60px;"">+</div>","null","html-keyboard-response","200","280585","0.0-6.0-0.97","DIGA","4","m","rechts","58","","fixation","","","",""
"1078","img/60_180.png","70","image-keyboard-response","201","281664","0.0-6.0-1.97","DIGA","4","m","rechts","58","","","object","f","60","true"
"null","<div style=""font-size:60px;"">+</div>","null","html-keyboard-response","202","282019","0.0-6.0-0.98","DIGA","4","m","rechts","58","","fixation","","","",""
"1139","img/90_120.png","74","image-keyboard-response","203","283159","0.0-6.0-1.98","DIGA","4","m","rechts","58","","","object","j","90","true"
"null","<div style=""font-size:60px;"">+</div>","null","html-keyboard-response","204","283515","0.0-6.0-0.99","DIGA","4","m","rechts","58","","fixation","","","",""
"981","img/0_30.png","74","image-keyboard-response","205","284497","0.0-6.0-1.99","DIGA","4","m","rechts","58","","","object","j","0","true"
"null","<div style=""font-size:60px;"">+</div>","null","html-keyboard-response","206","284903","0.0-6.0-0.100","DIGA","4","m","rechts","58","","fixation","","","",""
"2551","img/150_90.png","70","image-keyboard-response","207","287454","0.0-6.0-1.100","DIGA","4","m","rechts","58","","","object","f","150","true"
"null","<div style=""font-size:60px;"">+</div>","null","html-keyboard-response","208","287857","0.0-6.0-0.101","DIGA","4","m","rechts","58","","fixation","","","",""
"2163","img/120_330.png","74","image-keyboard-response","209","290021","0.0-6.0-1.101","DIGA","4","m","rechts","58","","","object","j","120","true"
"null","<div style=""font-size:60px;"">+</div>","null","html-keyboard-response","210","290422","0.0-6.0-0.102","DIGA","4","m","rechts","58","","fixation","","","",""
"1177","img/0_330.png","70","image-keyboard-response","211","291599","0.0-6.0-1.102","DIGA","4","m","rechts","58","","","object","f","0","true"
"null","<div style=""font-size:60px;"">+</div>","null","html-keyboard-response","212","292052","0.0-6.0-0.103","DIGA","4","m","rechts","58","","fixation","","","",""
"1389","img/90_180.png","70","image-keyboard-response","213","293442","0.0-6.0-1.103","DIGA","4","m","rechts","58","","","object","f","90","true"
"null","<div style=""font-size:60px;"">+</div>","null","html-keyboard-response","214","293796","0.0-6.0-0.104","DIGA","4","m","rechts","58","","fixation","","","",""
"2362","img/120_30.png","70","image-keyboard-response","215","296159","0.0-6.0-1.104","DIGA","4","m","rechts","58","","","object","f","120","true"
"null","<div style=""font-size:60px;"">+</div>","null","html-keyboard-response","216","296563","0.0-6.0-0.105","DIGA","4","m","rechts","58","","fixation","","","",""
"1926","img/L60_180.png","74","image-keyboard-response","217","298489","0.0-6.0-1.105","DIGA","4","m","rechts","58","","","object","j","60","true"
"null","<div style=""font-size:60px;"">+</div>","null","html-keyboard-response","218","298942","0.0-6.0-0.106","DIGA","4","m","rechts","58","","fixation","","","",""
"1620","img/90_180.png","70","image-keyboard-response","219","300562","0.0-6.0-1.106","DIGA","4","m","rechts","58","","","object","f","90","true"
"null","<div style=""font-size:60px;"">+</div>","null","html-keyboard-response","220","300918","0.0-6.0-0.107","DIGA","4","m","rechts","58","","fixation","","","",""
"1863","img/L120_180.png","74","image-keyboard-response","221","302781","0.0-6.0-1.107","DIGA","4","m","rechts","58","","","object","j","120","true"
"null","<div style=""font-size:60px;"">+</div>","null","html-keyboard-response","222","303185","0.0-6.0-0.108","DIGA","4","m","rechts","58","","fixation","","","",""
"1243","img/90_30.png","70","image-keyboard-response","223","304429","0.0-6.0-1.108","DIGA","4","m","rechts","58","","","object","f","90","true"
"null","<div style=""font-size:60px;"">+</div>","null","html-keyboard-response","224","304834","0.0-6.0-0.109","DIGA","4","m","rechts","58","","fixation","","","",""
"1480","img/150_120.png","70","image-keyboard-response","225","306314","0.0-6.0-1.109","DIGA","4","m","rechts","58","","","object","f","150","true"
"null","<div style=""font-size:60px;"">+</div>","null","html-keyboard-response","226","306619","0.0-6.0-0.110","DIGA","4","m","rechts","58","","fixation","","","",""
"1404","img/60_30.png","70","image-keyboard-response","227","308025","0.0-6.0-1.110","DIGA","4","m","rechts","58","","","object","f","60","true"
"null","<div style=""font-size:60px;"">+</div>","null","html-keyboard-response","228","308380","0.0-6.0-0.111","DIGA","4","m","rechts","58","","fixation","","","",""
"1501","img/0_120.png","74","image-keyboard-response","229","309881","0.0-6.0-1.111","DIGA","4","m","rechts","58","","","object","j","0","true"
"null","<div style=""font-size:60px;"">+</div>","null","html-keyboard-response","230","310186","0.0-6.0-0.112","DIGA","4","m","rechts","58","","fixation","","","",""
"2426","img/90_330.png","70","image-keyboard-response","231","312612","0.0-6.0-1.112","DIGA","4","m","rechts","58","","","object","j","90","false"
"null","<div style=""font-size:60px;"">+</div>","null","html-keyboard-response","232","313018","0.0-6.0-0.113","DIGA","4","m","rechts","58","","fixation","","","",""
"1840","img/120_180.png","70","image-keyboard-response","233","314858","0.0-6.0-1.113","DIGA","4","m","rechts","58","","","object","f","120","true"
"null","<div style=""font-size:60px;"">+</div>","null","html-keyboard-response","234","315310","0.0-6.0-0.114","DIGA","4","m","rechts","58","","fixation","","","",""
"1575","img/30_120.png","74","image-keyboard-response","235","316885","0.0-6.0-1.114","DIGA","4","m","rechts","58","","","object","j","30","true"
"null","<div style=""font-size:60px;"">+</div>","null","html-keyboard-response","236","317238","0.0-6.0-0.115","DIGA","4","m","rechts","58","","fixation","","","",""
"1453","img/60_330.png","74","image-keyboard-response","237","318691","0.0-6.0-1.115","DIGA","4","m","rechts","58","","","object","j","60","true"
"null","<div style=""font-size:60px;"">+</div>","null","html-keyboard-response","238","318997","0.0-6.0-0.116","DIGA","4","m","rechts","58","","fixation","","","",""
"2509","img/90_210.png","70","image-keyboard-response","239","321506","0.0-6.0-1.116","DIGA","4","m","rechts","58","","","object","f","90","true"
"null","<div style=""font-size:60px;"">+</div>","null","html-keyboard-response","240","321858","0.0-6.0-0.117","DIGA","4","m","rechts","58","","fixation","","","",""
"1397","img/120_330.png","74","image-keyboard-response","241","323255","0.0-6.0-1.117","DIGA","4","m","rechts","58","","","object","j","120","true"
"null","<div style=""font-size:60px;"">+</div>","null","html-keyboard-response","242","323755","0.0-6.0-0.118","DIGA","4","m","rechts","58","","fixation","","","",""
"1567","img/150_270.png","74","image-keyboard-response","243","325324","0.0-6.0-1.118","DIGA","4","m","rechts","58","","","object","j","150","true"
"null","<div style=""font-size:60px;"">+</div>","null","html-keyboard-response","244","325729","0.0-6.0-0.119","DIGA","4","m","rechts","58","","fixation","","","",""
"1154","img/0_300.png","70","image-keyboard-response","245","326884","0.0-6.0-1.119","DIGA","4","m","rechts","58","","","object","f","0","true"
"null","<div style=""font-size:60px;"">+</div>","null","html-keyboard-response","246","327238","0.0-6.0-0.120","DIGA","4","m","rechts","58","","fixation","","","",""
"2084","img/150_60.png","70","image-keyboard-response","247","329323","0.0-6.0-1.120","DIGA","4","m","rechts","58","","","object","f","150","true"
"null","<div style=""font-size:60px;"">+</div>","null","html-keyboard-response","248","329827","0.0-6.0-0.121","DIGA","4","m","rechts","58","","fixation","","","",""
"2953","img/120_270.png","74","image-keyboard-response","249","332781","0.0-6.0-1.121","DIGA","4","m","rechts","58","","","object","j","120","true"
"null","<div style=""font-size:60px;"">+</div>","null","html-keyboard-response","250","333135","0.0-6.0-0.122","DIGA","4","m","rechts","58","","fixation","","","",""
"1653","img/150_180.png","74","image-keyboard-response","251","334788","0.0-6.0-1.122","DIGA","4","m","rechts","58","","","object","f","150","false"
"null","<div style=""font-size:60px;"">+</div>","null","html-keyboard-response","252","335194","0.0-6.0-0.123","DIGA","4","m","rechts","58","","fixation","","","",""
"1110","img/0_150.png","74","image-keyboard-response","253","336305","0.0-6.0-1.123","DIGA","4","m","rechts","58","","","object","j","0","true"
"null","<div style=""font-size:60px;"">+</div>","null","html-keyboard-response","254","336809","0.0-6.0-0.124","DIGA","4","m","rechts","58","","fixation","","","",""
"1211","img/30_240.png","70","image-keyboard-response","255","338020","0.0-6.0-1.124","DIGA","4","m","rechts","58","","","object","f","30","true"
"null","<div style=""font-size:60px;"">+</div>","null","html-keyboard-response","256","338427","0.0-6.0-0.125","DIGA","4","m","rechts","58","","fixation","","","",""
"1164","img/30_300.png","70","image-keyboard-response","257","339591","0.0-6.0-1.125","DIGA","4","m","rechts","58","","","object","f","30","true"
"null","<div style=""font-size:60px;"">+</div>","null","html-keyboard-response","258","339997","0.0-6.0-0.126","DIGA","4","m","rechts","58","","fixation","","","",""
"1004","img/0_270.png","70","image-keyboard-response","259","341001","0.0-6.0-1.126","DIGA","4","m","rechts","58","","","object","f","0","true"
"null","<div style=""font-size:60px;"">+</div>","null","html-keyboard-response","260","341407","0.0-6.0-0.127","DIGA","4","m","rechts","58","","fixation","","","",""
"2020","img/60_90.png","74","image-keyboard-response","261","343428","0.0-6.0-1.127","DIGA","4","m","rechts","58","","","object","j","60","true"
"null","<div style=""font-size:60px;"">+</div>","null","html-keyboard-response","262","343780","0.0-6.0-0.128","DIGA","4","m","rechts","58","","fixation","","","",""
"2839","img/150_240.png","74","image-keyboard-response","263","346620","0.0-6.0-1.128","DIGA","4","m","rechts","58","","","object","j","150","true"
"null","<div style=""font-size:60px;"">+</div>","null","html-keyboard-response","264","346973","0.0-6.0-0.129","DIGA","4","m","rechts","58","","fixation","","","",""
"875","img/0_30.png","74","image-keyboard-response","265","347848","0.0-6.0-1.129","DIGA","4","m","rechts","58","","","object","j","0","true"
"null","<div style=""font-size:60px;"">+</div>","null","html-keyboard-response","266","348204","0.0-6.0-0.130","DIGA","4","m","rechts","58","","fixation","","","",""
"1368","img/90_150.png","74","image-keyboard-response","267","349572","0.0-6.0-1.130","DIGA","4","m","rechts","58","","","object","j","90","true"
"null","<div style=""font-size:60px;"">+</div>","null","html-keyboard-response","268","350078","0.0-6.0-0.131","DIGA","4","m","rechts","58","","fixation","","","",""
"998","img/30_90.png","74","image-keyboard-response","269","351076","0.0-6.0-1.131","DIGA","4","m","rechts","58","","","object","j","30","true"
"null","<div style=""font-size:60px;"">+</div>","null","html-keyboard-response","270","351383","0.0-6.0-0.132","DIGA","4","m","rechts","58","","fixation","","","",""
"1771","img/L150_180.png","74","image-keyboard-response","271","353154","0.0-6.0-1.132","DIGA","4","m","rechts","58","","","object","j","150","true"
"null","<div style=""font-size:60px;"">+</div>","null","html-keyboard-response","272","353660","0.0-6.0-0.133","DIGA","4","m","rechts","58","","fixation","","","",""
"1672","img/60_270.png","70","image-keyboard-response","273","355332","0.0-6.0-1.133","DIGA","4","m","rechts","58","","","object","f","60","true"
"null","<div style=""font-size:60px;"">+</div>","null","html-keyboard-response","274","355836","0.0-6.0-0.134","DIGA","4","m","rechts","58","","fixation","","","",""
"1879","img/120_210.png","74","image-keyboard-response","275","357716","0.0-6.0-1.134","DIGA","4","m","rechts","58","","","object","f","120","false"
"null","<div style=""font-size:60px;"">+</div>","null","html-keyboard-response","276","358171","0.0-6.0-0.135","DIGA","4","m","rechts","58","","fixation","","","",""
"1048","img/30_270.png","70","image-keyboard-response","277","359219","0.0-6.0-1.135","DIGA","4","m","rechts","58","","","object","f","30","true"
"null","<div style=""font-size:60px;"">+</div>","null","html-keyboard-response","278","359721","0.0-6.0-0.136","DIGA","4","m","rechts","58","","fixation","","","",""
"2439","img/120_90.png","74","image-keyboard-response","279","362160","0.0-6.0-1.136","DIGA","4","m","rechts","58","","","object","f","120","false"
"null","<div style=""font-size:60px;"">+</div>","null","html-keyboard-response","280","362563","0.0-6.0-0.137","DIGA","4","m","rechts","58","","fixation","","","",""
"1504","img/60_180.png","70","image-keyboard-response","281","364068","0.0-6.0-1.137","DIGA","4","m","rechts","58","","","object","f","60","true"
"null","<div style=""font-size:60px;"">+</div>","null","html-keyboard-response","282","364522","0.0-6.0-0.138","DIGA","4","m","rechts","58","","fixation","","","",""
"2243","img/120_150.png","74","image-keyboard-response","283","366765","0.0-6.0-1.138","DIGA","4","m","rechts","58","","","object","j","120","true"
"null","<div style=""font-size:60px;"">+</div>","null","html-keyboard-response","284","367216","0.0-6.0-0.139","DIGA","4","m","rechts","58","","fixation","","","",""
"1430","img/90_120.png","74","image-keyboard-response","285","368647","0.0-6.0-1.139","DIGA","4","m","rechts","58","","","object","j","90","true"
"null","<div style=""font-size:60px;"">+</div>","null","html-keyboard-response","286","369099","0.0-6.0-0.140","DIGA","4","m","rechts","58","","fixation","","","",""
"1105","img/0_240.png","70","image-keyboard-response","287","370204","0.0-6.0-1.140","DIGA","4","m","rechts","58","","","object","f","0","true"
"null","<div style=""font-size:60px;"">+</div>","null","html-keyboard-response","288","370559","0.0-6.0-0.141","DIGA","4","m","rechts","58","","fixation","","","",""
"1596","img/150_90.png","70","image-keyboard-response","289","372155","0.0-6.0-1.141","DIGA","4","m","rechts","58","","","object","f","150","true"
"null","<div style=""font-size:60px;"">+</div>","null","html-keyboard-response","290","372561","0.0-6.0-0.142","DIGA","4","m","rechts","58","","fixation","","","",""
"1433","img/30_60.png","74","image-keyboard-response","291","373994","0.0-6.0-1.142","DIGA","4","m","rechts","58","","","object","j","30","true"
"null","<div style=""font-size:60px;"">+</div>","null","html-keyboard-response","292","374401","0.0-6.0-0.143","DIGA","4","m","rechts","58","","fixation","","","",""
"1559","img/90_240.png","70","image-keyboard-response","293","375960","0.0-6.0-1.143","DIGA","4","m","rechts","58","","","object","f","90","true"
"null","<div style=""font-size:60px;"">+</div>","null","html-keyboard-response","294","376464","0.0-6.0-0.144","DIGA","4","m","rechts","58","","fixation","","","",""
"1502","img/90_300.png","74","image-keyboard-response","295","377966","0.0-6.0-1.144","DIGA","4","m","rechts","58","","","object","j","90","true"
"null","<div style=""font-size:60px;"">+</div>","null","html-keyboard-response","296","378322","0.0-6.0-0.145","DIGA","4","m","rechts","58","","fixation","","","",""
"1424","img/150_300.png","74","image-keyboard-response","297","379747","0.0-6.0-1.145","DIGA","4","m","rechts","58","","","object","j","150","true"
"null","<div style=""font-size:60px;"">+</div>","null","html-keyboard-response","298","380201","0.0-6.0-0.146","DIGA","4","m","rechts","58","","fixation","","","",""
"1207","img/0_330.png","70","image-keyboard-response","299","381410","0.0-6.0-1.146","DIGA","4","m","rechts","58","","","object","f","0","true"
"null","<div style=""font-size:60px;"">+</div>","null","html-keyboard-response","300","381861","0.0-6.0-0.147","DIGA","4","m","rechts","58","","fixation","","","",""
"1577","img/30_180.png","70","image-keyboard-response","301","383439","0.0-6.0-1.147","DIGA","4","m","rechts","58","","","object","f","30","true"
"null","<div style=""font-size:60px;"">+</div>","null","html-keyboard-response","302","383945","0.0-6.0-0.148","DIGA","4","m","rechts","58","","fixation","","","",""
"1508","img/60_150.png","74","image-keyboard-response","303","385454","0.0-6.0-1.148","DIGA","4","m","rechts","58","","","object","j","60","true"
"null","<div style=""font-size:60px;"">+</div>","null","html-keyboard-response","304","385810","0.0-6.0-0.149","DIGA","4","m","rechts","58","","fixation","","","",""
"1396","img/L90_180.png","74","image-keyboard-response","305","387207","0.0-6.0-1.149","DIGA","4","m","rechts","58","","","object","j","90","true"
"null","<div style=""font-size:60px;"">+</div>","null","html-keyboard-response","306","387562","0.0-6.0-0.150","DIGA","4","m","rechts","58","","fixation","","","",""
"1487","img/0_60.png","74","image-keyboard-response","307","389049","0.0-6.0-1.150","DIGA","4","m","rechts","58","","","object","j","0","true"
"null","<div style=""font-size:60px;"">+</div>","null","html-keyboard-response","308","389355","0.0-6.0-0.151","DIGA","4","m","rechts","58","","fixation","","","",""
"1393","img/60_210.png","70","image-keyboard-response","309","390748","0.0-6.0-1.151","DIGA","4","m","rechts","58","","","object","f","60","true"
"null","<div style=""font-size:60px;"">+</div>","null","html-keyboard-response","310","391154","0.0-6.0-0.152","DIGA","4","m","rechts","58","","fixation","","","",""
"1231","img/0_210.png","70","image-keyboard-response","311","392385","0.0-6.0-1.152","DIGA","4","m","rechts","58","","","object","f","0","true"
"null","<div style=""font-size:60px;"">+</div>","null","html-keyboard-response","312","392791","0.0-6.0-0.153","DIGA","4","m","rechts","58","","fixation","","","",""
"1689","img/90_60.png","70","image-keyboard-response","313","394481","0.0-6.0-1.153","DIGA","4","m","rechts","58","","","object","f","90","true"
"null","<div style=""font-size:60px;"">+</div>","null","html-keyboard-response","314","394838","0.0-6.0-0.154","DIGA","4","m","rechts","58","","fixation","","","",""
"1082","img/0_90.png","74","image-keyboard-response","315","395920","0.0-6.0-1.154","DIGA","4","m","rechts","58","","","object","j","0","true"
"null","<div style=""font-size:60px;"">+</div>","null","html-keyboard-response","316","396221","0.0-6.0-0.155","DIGA","4","m","rechts","58","","fixation","","","",""
"2189","img/L30_180.png","74","image-keyboard-response","317","398410","0.0-6.0-1.155","DIGA","4","m","rechts","58","","","object","j","30","true"
"null","<div style=""font-size:60px;"">+</div>","null","html-keyboard-response","318","398914","0.0-6.0-0.156","DIGA","4","m","rechts","58","","fixation","","","",""
"null","img/120_270.png","null","image-keyboard-response","319","401915","0.0-6.0-1.156","DIGA","4","m","rechts","58","","","object","j","120","false"
"null","<div style=""font-size:60px;"">+</div>","null","html-keyboard-response","320","402368","0.0-6.0-0.157","DIGA","4","m","rechts","58","","fixation","","","",""
"938","img/0_60.png","74","image-keyboard-response","321","403306","0.0-6.0-1.157","DIGA","4","m","rechts","58","","","object","j","0","true"
"null","<div style=""font-size:60px;"">+</div>","null","html-keyboard-response","322","403657","0.0-6.0-0.158","DIGA","4","m","rechts","58","","fixation","","","",""
"1301","img/30_180.png","70","image-keyboard-response","323","404958","0.0-6.0-1.158","DIGA","4","m","rechts","58","","","object","f","30","true"
"null","<div style=""font-size:60px;"">+</div>","null","html-keyboard-response","324","405363","0.0-6.0-0.159","DIGA","4","m","rechts","58","","fixation","","","",""
"1353","img/60_90.png","74","image-keyboard-response","325","406717","0.0-6.0-1.159","DIGA","4","m","rechts","58","","","object","j","60","true"
"null","<div style=""font-size:60px;"">+</div>","null","html-keyboard-response","326","407123","0.0-6.0-0.160","DIGA","4","m","rechts","58","","fixation","","","",""
"1992","img/120_150.png","74","image-keyboard-response","327","409115","0.0-6.0-1.160","DIGA","4","m","rechts","58","","","object","j","120","true"
"null","<div style=""font-size:60px;"">+</div>","null","html-keyboard-response","328","409476","0.0-6.0-0.161","DIGA","4","m","rechts","58","","fixation","","","",""
"998","img/0_330.png","70","image-keyboard-response","329","410474","0.0-6.0-1.161","DIGA","4","m","rechts","58","","","object","f","0","true"
"null","<div style=""font-size:60px;"">+</div>","null","html-keyboard-response","330","410930","0.0-6.0-0.162","DIGA","4","m","rechts","58","","fixation","","","",""
"1571","img/150_300.png","74","image-keyboard-response","331","412502","0.0-6.0-1.162","DIGA","4","m","rechts","58","","","object","j","150","true"
"null","<div style=""font-size:60px;"">+</div>","null","html-keyboard-response","332","412807","0.0-6.0-0.163","DIGA","4","m","rechts","58","","fixation","","","",""
"1532","img/60_210.png","70","image-keyboard-response","333","414340","0.0-6.0-1.163","DIGA","4","m","rechts","58","","","object","f","60","true"
"null","<div style=""font-size:60px;"">+</div>","null","html-keyboard-response","334","414841","0.0-6.0-0.164","DIGA","4","m","rechts","58","","fixation","","","",""
"2475","img/120_210.png","70","image-keyboard-response","335","417317","0.0-6.0-1.164","DIGA","4","m","rechts","58","","","object","f","120","true"
"null","<div style=""font-size:60px;"">+</div>","null","html-keyboard-response","336","417771","0.0-6.0-0.165","DIGA","4","m","rechts","58","","fixation","","","",""
"1431","img/30_60.png","74","image-keyboard-response","337","419202","0.0-6.0-1.165","DIGA","4","m","rechts","58","","","object","j","30","true"
"null","<div style=""font-size:60px;"">+</div>","null","html-keyboard-response","338","419705","0.0-6.0-0.166","DIGA","4","m","rechts","58","","fixation","","","",""
"1397","img/L120_180.png","74","image-keyboard-response","339","421103","0.0-6.0-1.166","DIGA","4","m","rechts","58","","","object","j","120","true"
"null","<div style=""font-size:60px;"">+</div>","null","html-keyboard-response","340","421505","0.0-6.0-0.167","DIGA","4","m","rechts","58","","fixation","","","",""
"1147","img/L90_180.png","74","image-keyboard-response","341","422652","0.0-6.0-1.167","DIGA","4","m","rechts","58","","","object","j","90","true"
"null","<div style=""font-size:60px;"">+</div>","null","html-keyboard-response","342","422956","0.0-6.0-0.168","DIGA","4","m","rechts","58","","fixation","","","",""
"1418","img/150_180.png","70","image-keyboard-response","343","424374","0.0-6.0-1.168","DIGA","4","m","rechts","58","","","object","f","150","true"
"null","<div style=""font-size:60px;"">+</div>","null","html-keyboard-response","344","424780","0.0-6.0-0.169","DIGA","4","m","rechts","58","","fixation","","","",""
"1232","img/60_30.png","70","image-keyboard-response","345","426013","0.0-6.0-1.169","DIGA","4","m","rechts","58","","","object","f","60","true"
"null","<div style=""font-size:60px;"">+</div>","null","html-keyboard-response","346","426467","0.0-6.0-0.170","DIGA","4","m","rechts","58","","fixation","","","",""
"1141","img/0_270.png","70","image-keyboard-response","347","427609","0.0-6.0-1.170","DIGA","4","m","rechts","58","","","object","f","0","true"
"null","<div style=""font-size:60px;"">+</div>","null","html-keyboard-response","348","428114","0.0-6.0-0.171","DIGA","4","m","rechts","58","","fixation","","","",""
"954","img/0_30.png","74","image-keyboard-response","349","429068","0.0-6.0-1.171","DIGA","4","m","rechts","58","","","object","j","0","true"
"null","<div style=""font-size:60px;"">+</div>","null","html-keyboard-response","350","429474","0.0-6.0-0.172","DIGA","4","m","rechts","58","","fixation","","","",""
"824","img/0_210.png","70","image-keyboard-response","351","430299","0.0-6.0-1.172","DIGA","4","m","rechts","58","","","object","f","0","true"
"null","<div style=""font-size:60px;"">+</div>","null","html-keyboard-response","352","430704","0.0-6.0-0.173","DIGA","4","m","rechts","58","","fixation","","","",""
"1638","img/120_180.png","70","image-keyboard-response","353","432345","0.0-6.0-1.173","DIGA","4","m","rechts","58","","","object","f","120","true"
"null","<div style=""font-size:60px;"">+</div>","null","html-keyboard-response","354","432700","0.0-6.0-0.174","DIGA","4","m","rechts","58","","fixation","","","",""
"1627","img/120_30.png","70","image-keyboard-response","355","434329","0.0-6.0-1.174","DIGA","4","m","rechts","58","","","object","f","120","true"
"null","<div style=""font-size:60px;"">+</div>","null","html-keyboard-response","356","434635","0.0-6.0-0.175","DIGA","4","m","rechts","58","","fixation","","","",""
"1061","img/90_30.png","70","image-keyboard-response","357","435696","0.0-6.0-1.175","DIGA","4","m","rechts","58","","","object","f","90","true"
"null","<div style=""font-size:60px;"">+</div>","null","html-keyboard-response","358","436048","0.0-6.0-0.176","DIGA","4","m","rechts","58","","fixation","","","",""
"2007","img/90_150.png","74","image-keyboard-response","359","438056","0.0-6.0-1.176","DIGA","4","m","rechts","58","","","object","j","90","true"
"null","<div style=""font-size:60px;"">+</div>","null","html-keyboard-response","360","438511","0.0-6.0-0.177","DIGA","4","m","rechts","58","","fixation","","","",""
"1380","img/150_240.png","70","image-keyboard-response","361","439892","0.0-6.0-1.177","DIGA","4","m","rechts","58","","","object","j","150","false"
"null","<div style=""font-size:60px;"">+</div>","null","html-keyboard-response","362","440247","0.0-6.0-0.178","DIGA","4","m","rechts","58","","fixation","","","",""
"1123","img/90_300.png","74","image-keyboard-response","363","441371","0.0-6.0-1.178","DIGA","4","m","rechts","58","","","object","j","90","true"
"null","<div style=""font-size:60px;"">+</div>","null","html-keyboard-response","364","441727","0.0-6.0-0.179","DIGA","4","m","rechts","58","","fixation","","","",""
"1276","img/30_90.png","70","image-keyboard-response","365","443004","0.0-6.0-1.179","DIGA","4","m","rechts","58","","","object","j","30","false"
"null","<div style=""font-size:60px;"">+</div>","null","html-keyboard-response","366","443358","0.0-6.0-0.180","DIGA","4","m","rechts","58","","fixation","","","",""
"2294","img/L60_180.png","74","image-keyboard-response","367","445653","0.0-6.0-1.180","DIGA","4","m","rechts","58","","","object","j","60","true"
"null","<div style=""font-size:60px;"">+</div>","null","html-keyboard-response","368","446110","0.0-6.0-0.181","DIGA","4","m","rechts","58","","fixation","","","",""
"1242","img/60_330.png","74","image-keyboard-response","369","447352","0.0-6.0-1.181","DIGA","4","m","rechts","58","","","object","j","60","true"
"null","<div style=""font-size:60px;"">+</div>","null","html-keyboard-response","370","447857","0.0-6.0-0.182","DIGA","4","m","rechts","58","","fixation","","","",""
"1405","img/30_300.png","70","image-keyboard-response","371","449262","0.0-6.0-1.182","DIGA","4","m","rechts","58","","","object","f","30","true"
"null","<div style=""font-size:60px;"">+</div>","null","html-keyboard-response","372","449769","0.0-6.0-0.183","DIGA","4","m","rechts","58","","fixation","","","",""
"1587","img/90_240.png","70","image-keyboard-response","373","451356","0.0-6.0-1.183","DIGA","4","m","rechts","58","","","object","f","90","true"
"null","<div style=""font-size:60px;"">+</div>","null","html-keyboard-response","374","451863","0.0-6.0-0.184","DIGA","4","m","rechts","58","","fixation","","","",""
"1576","img/90_180.png","70","image-keyboard-response","375","453439","0.0-6.0-1.184","DIGA","4","m","rechts","58","","","object","f","90","true"
"null","<div style=""font-size:60px;"">+</div>","null","html-keyboard-response","376","453795","0.0-6.0-0.185","DIGA","4","m","rechts","58","","fixation","","","",""
"1448","img/60_270.png","70","image-keyboard-response","377","455244","0.0-6.0-1.185","DIGA","4","m","rechts","58","","","object","f","60","true"
"null","<div style=""font-size:60px;"">+</div>","null","html-keyboard-response","378","455650","0.0-6.0-0.186","DIGA","4","m","rechts","58","","fixation","","","",""
"1830","img/150_270.png","74","image-keyboard-response","379","457483","0.0-6.0-1.186","DIGA","4","m","rechts","58","","","object","j","150","true"
"null","<div style=""font-size:60px;"">+</div>","null","html-keyboard-response","380","457834","0.0-6.0-0.187","DIGA","4","m","rechts","58","","fixation","","","",""
"1462","img/90_120.png","74","image-keyboard-response","381","459296","0.0-6.0-1.187","DIGA","4","m","rechts","58","","","object","j","90","true"
"null","<div style=""font-size:60px;"">+</div>","null","html-keyboard-response","382","459702","0.0-6.0-0.188","DIGA","4","m","rechts","58","","fixation","","","",""
"1184","img/L30_180.png","70","image-keyboard-response","383","460888","0.0-6.0-1.188","DIGA","4","m","rechts","58","","","object","j","30","false"
"null","<div style=""font-size:60px;"">+</div>","null","html-keyboard-response","384","461240","0.0-6.0-0.189","DIGA","4","m","rechts","58","","fixation","","","",""
"2071","img/150_90.png","74","image-keyboard-response","385","463312","0.0-6.0-1.189","DIGA","4","m","rechts","58","","","object","f","150","false"
"null","<div style=""font-size:60px;"">+</div>","null","html-keyboard-response","386","463614","0.0-6.0-0.190","DIGA","4","m","rechts","58","","fixation","","","",""
"1882","img/120_90.png","70","image-keyboard-response","387","465496","0.0-6.0-1.190","DIGA","4","m","rechts","58","","","object","f","120","true"
"null","<div style=""font-size:60px;"">+</div>","null","html-keyboard-response","388","465948","0.0-6.0-0.191","DIGA","4","m","rechts","58","","fixation","","","",""
"1476","img/30_120.png","74","image-keyboard-response","389","467425","0.0-6.0-1.191","DIGA","4","m","rechts","58","","","object","j","30","true"
"null","<div style=""font-size:60px;"">+</div>","null","html-keyboard-response","390","467926","0.0-6.0-0.192","DIGA","4","m","rechts","58","","fixation","","","",""
"1171","img/0_150.png","74","image-keyboard-response","391","469099","0.0-6.0-1.192","DIGA","4","m","rechts","58","","","object","j","0","true"
"null","<div style=""font-size:60px;"">+</div>","null","html-keyboard-response","392","469604","0.0-6.0-0.193","DIGA","4","m","rechts","58","","fixation","","","",""
"1721","img/120_330.png","74","image-keyboard-response","393","471326","0.0-6.0-1.193","DIGA","4","m","rechts","58","","","object","j","120","true"
"null","<div style=""font-size:60px;"">+</div>","null","html-keyboard-response","394","471728","0.0-6.0-0.194","DIGA","4","m","rechts","58","","fixation","","","",""
"880","img/0_90.png","74","image-keyboard-response","395","472609","0.0-6.0-1.194","DIGA","4","m","rechts","58","","","object","j","0","true"
"null","<div style=""font-size:60px;"">+</div>","null","html-keyboard-response","396","473011","0.0-6.0-0.195","DIGA","4","m","rechts","58","","fixation","","","",""
"1322","img/90_60.png","70","image-keyboard-response","397","474334","0.0-6.0-1.195","DIGA","4","m","rechts","58","","","object","f","90","true"
"null","<div style=""font-size:60px;"">+</div>","null","html-keyboard-response","398","474840","0.0-6.0-0.196","DIGA","4","m","rechts","58","","fixation","","","",""
"1454","img/60_150.png","74","image-keyboard-response","399","476295","0.0-6.0-1.196","DIGA","4","m","rechts","58","","","object","j","60","true"
"null","<div style=""font-size:60px;"">+</div>","null","html-keyboard-response","400","476599","0.0-6.0-0.197","DIGA","4","m","rechts","58","","fixation","","","",""
"1533","img/150_120.png","70","image-keyboard-response","401","478132","0.0-6.0-1.197","DIGA","4","m","rechts","58","","","object","f","150","true"
"null","<div style=""font-size:60px;"">+</div>","null","html-keyboard-response","402","478485","0.0-6.0-0.198","DIGA","4","m","rechts","58","","fixation","","","",""
"1605","img/150_60.png","70","image-keyboard-response","403","480090","0.0-6.0-1.198","DIGA","4","m","rechts","58","","","object","f","150","true"
"null","<div style=""font-size:60px;"">+</div>","null","html-keyboard-response","404","480593","0.0-6.0-0.199","DIGA","4","m","rechts","58","","fixation","","","",""
"1365","img/90_330.png","74","image-keyboard-response","405","481958","0.0-6.0-1.199","DIGA","4","m","rechts","58","","","object","j","90","true"
"null","<div style=""font-size:60px;"">+</div>","null","html-keyboard-response","406","482310","0.0-6.0-0.200","DIGA","4","m","rechts","58","","fixation","","","",""
"1570","img/90_210.png","70","image-keyboard-response","407","483880","0.0-6.0-1.200","DIGA","4","m","rechts","58","","","object","f","90","true"
"null","<div style=""font-size:60px;"">+</div>","null","html-keyboard-response","408","484236","0.0-6.0-0.201","DIGA","4","m","rechts","58","","fixation","","","",""
"2273","img/60_180.png","70","image-keyboard-response","409","486510","0.0-6.0-1.201","DIGA","4","m","rechts","58","","","object","f","60","true"
"null","<div style=""font-size:60px;"">+</div>","null","html-keyboard-response","410","486965","0.0-6.0-0.202","DIGA","4","m","rechts","58","","fixation","","","",""
"1469","img/0_240.png","70","image-keyboard-response","411","488435","0.0-6.0-1.202","DIGA","4","m","rechts","58","","","object","f","0","true"
"null","<div style=""font-size:60px;"">+</div>","null","html-keyboard-response","412","488840","0.0-6.0-0.203","DIGA","4","m","rechts","58","","fixation","","","",""
"743","img/0_300.png","70","image-keyboard-response","413","489585","0.0-6.0-1.203","DIGA","4","m","rechts","58","","","object","f","0","true"
"null","<div style=""font-size:60px;"">+</div>","null","html-keyboard-response","414","489891","0.0-6.0-0.204","DIGA","4","m","rechts","58","","fixation","","","",""
"846","img/0_120.png","74","image-keyboard-response","415","490737","0.0-6.0-1.204","DIGA","4","m","rechts","58","","","object","j","0","true"
"null","<div style=""font-size:60px;"">+</div>","null","html-keyboard-response","416","491240","0.0-6.0-0.205","DIGA","4","m","rechts","58","","fixation","","","",""
"1467","img/L150_180.png","74","image-keyboard-response","417","492708","0.0-6.0-1.205","DIGA","4","m","rechts","58","","","object","j","150","true"
"null","<div style=""font-size:60px;"">+</div>","null","html-keyboard-response","418","493112","0.0-6.0-0.206","DIGA","4","m","rechts","58","","fixation","","","",""
"2072","img/30_270.png","70","image-keyboard-response","419","495184","0.0-6.0-1.206","DIGA","4","m","rechts","58","","","object","f","30","true"
"null","<div style=""font-size:60px;"">+</div>","null","html-keyboard-response","420","495689","0.0-6.0-0.207","DIGA","4","m","rechts","58","","fixation","","","",""
"949","img/30_240.png","70","image-keyboard-response","421","496638","0.0-6.0-1.207","DIGA","4","m","rechts","58","","","object","f","30","true"
"98882","<p>Du hast in 90% der Versuche korrekt entschieden.</p><p>Deine durchschnittliche Reaktionszeit war  1471ms.</p><p>Dr&uuml;cke eine beliebige Taste, um die Session zu beenden. Vielen Dank!</p>","72","html-keyboard-response","422","595523","0.0-7.0","DIGA","4","m","rechts","58","","","","","",""
