"rt","stimulus","key_press","trial_type","trial_index","time_elapsed","internal_node_id","subject","session","sex","handedness","age","responses","test_part","condition","correct_response","angle","correct"
"11668","<p>Mental Rotation Experiment.</p> <p>Dr&uuml;cke eine beliebige Taste, um anzufangen.</p>","72","html-keyboard-response","0","11671","0.0-0.0","DIGA","3","m","rechts","58","","","","","",""
"7572","","","survey-text","1","19244","0.0-1.0","DIGA","3","m","rechts","58","{""Q0"":""DIGA""}","","","","",""
"2914","","","survey-text","2","22161","0.0-2.0","DIGA","3","m","rechts","58","{""Q0"":""3""}","","","","",""
"3201","","","survey-multi-choice","3","25367","0.0-3.0","DIGA","3","m","rechts","58","{""Q0"":""m"",""Q1"":""rechts""}","","","","",""
"3797","","","survey-text","4","29164","0.0-4.0","DIGA","3","m","rechts","58","{""Q0"":""58""}","","","","",""
"8839","<p>Stell dir vor, dass du vor einem runden Tisch stehst, auf dem sich ein blauer Ball am Tischrand befindet. Entlang des Tischrands ist jeweils ein verschieden langer Pfeil. Nun bleibst du an deinem Platz vor dem Tisch und rotierst den Tisch entlang des Pfeils (gleiche Richtung und Länge). </p> <img src='img/30_180.png'></img> <br><p> Nachdem du diese (vorgestellte) Rotation durchgef&uuml;hrt hast, schau in Richtung der Tischmitte, und entscheide dann, ob der Ball links oder rechts von dir liegt.</p> <p>Dr&uuml;cke die <strong>'f'</strong>-Taste f&uuml;r links, die <strong>'j'</strong>-Taste f&uuml;r rechts.</p><br><p> Das Bild wird jeweils 1 Sekunde lang pr&auml;sentiert. Du hast 3 Sekunden Zeit eine Entscheidung zu treffen.</p>","70","html-keyboard-response","5","38003","0.0-5.0","DIGA","3","m","rechts","58","","","","","",""
"null","<div style=""font-size:60px;"">+</div>","null","html-keyboard-response","6","39458","0.0-6.0-0.0","DIGA","3","m","rechts","58","","fixation","","","",""
"1836","img/L60_180.png","74","image-keyboard-response","7","41295","0.0-6.0-1.0","DIGA","3","m","rechts","58","","","object","j","60","true"
"null","<div style=""font-size:60px;"">+</div>","null","html-keyboard-response","8","41652","0.0-6.0-0.1","DIGA","3","m","rechts","58","","fixation","","","",""
"1364","img/30_180.png","70","image-keyboard-response","9","43017","0.0-6.0-1.1","DIGA","3","m","rechts","58","","","object","f","30","true"
"null","<div style=""font-size:60px;"">+</div>","null","html-keyboard-response","10","43469","0.0-6.0-0.2","DIGA","3","m","rechts","58","","fixation","","","",""
"1444","img/90_60.png","70","image-keyboard-response","11","44913","0.0-6.0-1.2","DIGA","3","m","rechts","58","","","object","f","90","true"
"null","<div style=""font-size:60px;"">+</div>","null","html-keyboard-response","12","45367","0.0-6.0-0.3","DIGA","3","m","rechts","58","","fixation","","","",""
"1275","img/0_120.png","74","image-keyboard-response","13","46644","0.0-6.0-1.3","DIGA","3","m","rechts","58","","","object","j","0","true"
"null","<div style=""font-size:60px;"">+</div>","null","html-keyboard-response","14","47097","0.0-6.0-0.4","DIGA","3","m","rechts","58","","fixation","","","",""
"2026","img/90_120.png","70","image-keyboard-response","15","49123","0.0-6.0-1.4","DIGA","3","m","rechts","58","","","object","j","90","false"
"null","<div style=""font-size:60px;"">+</div>","null","html-keyboard-response","16","49529","0.0-6.0-0.5","DIGA","3","m","rechts","58","","fixation","","","",""
"1722","img/150_180.png","70","image-keyboard-response","17","51252","0.0-6.0-1.5","DIGA","3","m","rechts","58","","","object","f","150","true"
"null","<div style=""font-size:60px;"">+</div>","null","html-keyboard-response","18","51757","0.0-6.0-0.6","DIGA","3","m","rechts","58","","fixation","","","",""
"1081","img/0_90.png","74","image-keyboard-response","19","52839","0.0-6.0-1.6","DIGA","3","m","rechts","58","","","object","j","0","true"
"null","<div style=""font-size:60px;"">+</div>","null","html-keyboard-response","20","53192","0.0-6.0-0.7","DIGA","3","m","rechts","58","","fixation","","","",""
"1500","img/30_300.png","74","image-keyboard-response","21","54693","0.0-6.0-1.7","DIGA","3","m","rechts","58","","","object","f","30","false"
"null","<div style=""font-size:60px;"">+</div>","null","html-keyboard-response","22","55147","0.0-6.0-0.8","DIGA","3","m","rechts","58","","fixation","","","",""
"1248","img/60_270.png","74","image-keyboard-response","23","56396","0.0-6.0-1.8","DIGA","3","m","rechts","58","","","object","f","60","false"
"null","<div style=""font-size:60px;"">+</div>","null","html-keyboard-response","24","56801","0.0-6.0-0.9","DIGA","3","m","rechts","58","","fixation","","","",""
"1559","img/120_150.png","74","image-keyboard-response","25","58361","0.0-6.0-1.9","DIGA","3","m","rechts","58","","","object","j","120","true"
"null","<div style=""font-size:60px;"">+</div>","null","html-keyboard-response","26","58664","0.0-6.0-0.10","DIGA","3","m","rechts","58","","fixation","","","",""
"1482","img/30_120.png","74","image-keyboard-response","27","60147","0.0-6.0-1.10","DIGA","3","m","rechts","58","","","object","j","30","true"
"null","<div style=""font-size:60px;"">+</div>","null","html-keyboard-response","28","60551","0.0-6.0-0.11","DIGA","3","m","rechts","58","","fixation","","","",""
"2095","img/150_270.png","70","image-keyboard-response","29","62646","0.0-6.0-1.11","DIGA","3","m","rechts","58","","","object","j","150","false"
"null","<div style=""font-size:60px;"">+</div>","null","html-keyboard-response","30","63151","0.0-6.0-0.12","DIGA","3","m","rechts","58","","fixation","","","",""
"1957","img/150_90.png","74","image-keyboard-response","31","65109","0.0-6.0-1.12","DIGA","3","m","rechts","58","","","object","f","150","false"
"null","<div style=""font-size:60px;"">+</div>","null","html-keyboard-response","32","65462","0.0-6.0-0.13","DIGA","3","m","rechts","58","","fixation","","","",""
"1613","img/30_240.png","70","image-keyboard-response","33","67075","0.0-6.0-1.13","DIGA","3","m","rechts","58","","","object","f","30","true"
"null","<div style=""font-size:60px;"">+</div>","null","html-keyboard-response","34","67478","0.0-6.0-0.14","DIGA","3","m","rechts","58","","fixation","","","",""
"1612","img/90_30.png","70","image-keyboard-response","35","69091","0.0-6.0-1.14","DIGA","3","m","rechts","58","","","object","f","90","true"
"null","<div style=""font-size:60px;"">+</div>","null","html-keyboard-response","36","69594","0.0-6.0-0.15","DIGA","3","m","rechts","58","","fixation","","","",""
"1442","img/L120_180.png","74","image-keyboard-response","37","71036","0.0-6.0-1.15","DIGA","3","m","rechts","58","","","object","j","120","true"
"null","<div style=""font-size:60px;"">+</div>","null","html-keyboard-response","38","71387","0.0-6.0-0.16","DIGA","3","m","rechts","58","","fixation","","","",""
"1494","img/60_180.png","70","image-keyboard-response","39","72882","0.0-6.0-1.16","DIGA","3","m","rechts","58","","","object","f","60","true"
"null","<div style=""font-size:60px;"">+</div>","null","html-keyboard-response","40","73234","0.0-6.0-0.17","DIGA","3","m","rechts","58","","fixation","","","",""
"1530","img/0_150.png","74","image-keyboard-response","41","74766","0.0-6.0-1.17","DIGA","3","m","rechts","58","","","object","j","0","true"
"null","<div style=""font-size:60px;"">+</div>","null","html-keyboard-response","42","75067","0.0-6.0-0.18","DIGA","3","m","rechts","58","","fixation","","","",""
"2026","img/90_330.png","74","image-keyboard-response","43","77094","0.0-6.0-1.18","DIGA","3","m","rechts","58","","","object","j","90","true"
"null","<div style=""font-size:60px;"">+</div>","null","html-keyboard-response","44","77447","0.0-6.0-0.19","DIGA","3","m","rechts","58","","fixation","","","",""
"1581","img/0_60.png","74","image-keyboard-response","45","79030","0.0-6.0-1.19","DIGA","3","m","rechts","58","","","object","j","0","true"
"null","<div style=""font-size:60px;"">+</div>","null","html-keyboard-response","46","79485","0.0-6.0-0.20","DIGA","3","m","rechts","58","","fixation","","","",""
"1542","img/120_270.png","74","image-keyboard-response","47","81027","0.0-6.0-1.20","DIGA","3","m","rechts","58","","","object","j","120","true"
"null","<div style=""font-size:60px;"">+</div>","null","html-keyboard-response","48","81382","0.0-6.0-0.21","DIGA","3","m","rechts","58","","fixation","","","",""
"1404","img/90_300.png","74","image-keyboard-response","49","82787","0.0-6.0-1.21","DIGA","3","m","rechts","58","","","object","j","90","true"
"null","<div style=""font-size:60px;"">+</div>","null","html-keyboard-response","50","83192","0.0-6.0-0.22","DIGA","3","m","rechts","58","","fixation","","","",""
"2207","img/150_120.png","70","image-keyboard-response","51","85400","0.0-6.0-1.22","DIGA","3","m","rechts","58","","","object","f","150","true"
"null","<div style=""font-size:60px;"">+</div>","null","html-keyboard-response","52","85904","0.0-6.0-0.23","DIGA","3","m","rechts","58","","fixation","","","",""
"1595","img/0_270.png","70","image-keyboard-response","53","87499","0.0-6.0-1.23","DIGA","3","m","rechts","58","","","object","f","0","true"
"null","<div style=""font-size:60px;"">+</div>","null","html-keyboard-response","54","88005","0.0-6.0-0.24","DIGA","3","m","rechts","58","","fixation","","","",""
"1700","img/L150_180.png","74","image-keyboard-response","55","89706","0.0-6.0-1.24","DIGA","3","m","rechts","58","","","object","j","150","true"
"null","<div style=""font-size:60px;"">+</div>","null","html-keyboard-response","56","90211","0.0-6.0-0.25","DIGA","3","m","rechts","58","","fixation","","","",""
"1921","img/90_240.png","74","image-keyboard-response","57","92133","0.0-6.0-1.25","DIGA","3","m","rechts","58","","","object","f","90","false"
"null","<div style=""font-size:60px;"">+</div>","null","html-keyboard-response","58","92486","0.0-6.0-0.26","DIGA","3","m","rechts","58","","fixation","","","",""
"1643","img/60_150.png","74","image-keyboard-response","59","94131","0.0-6.0-1.26","DIGA","3","m","rechts","58","","","object","j","60","true"
"null","<div style=""font-size:60px;"">+</div>","null","html-keyboard-response","60","94586","0.0-6.0-0.27","DIGA","3","m","rechts","58","","fixation","","","",""
"1627","img/30_60.png","74","image-keyboard-response","61","96213","0.0-6.0-1.27","DIGA","3","m","rechts","58","","","object","j","30","true"
"null","<div style=""font-size:60px;"">+</div>","null","html-keyboard-response","62","96517","0.0-6.0-0.28","DIGA","3","m","rechts","58","","fixation","","","",""
"1625","img/90_180.png","70","image-keyboard-response","63","98143","0.0-6.0-1.28","DIGA","3","m","rechts","58","","","object","f","90","true"
"null","<div style=""font-size:60px;"">+</div>","null","html-keyboard-response","64","98545","0.0-6.0-0.29","DIGA","3","m","rechts","58","","fixation","","","",""
"1560","img/60_90.png","74","image-keyboard-response","65","100106","0.0-6.0-1.29","DIGA","3","m","rechts","58","","","object","j","60","true"
"null","<div style=""font-size:60px;"">+</div>","null","html-keyboard-response","66","100508","0.0-6.0-0.30","DIGA","3","m","rechts","58","","fixation","","","",""
"1718","img/60_210.png","70","image-keyboard-response","67","102226","0.0-6.0-1.30","DIGA","3","m","rechts","58","","","object","f","60","true"
"null","<div style=""font-size:60px;"">+</div>","null","html-keyboard-response","68","102579","0.0-6.0-0.31","DIGA","3","m","rechts","58","","fixation","","","",""
"1596","img/30_90.png","74","image-keyboard-response","69","104180","0.0-6.0-1.31","DIGA","3","m","rechts","58","","","object","j","30","true"
"null","<div style=""font-size:60px;"">+</div>","null","html-keyboard-response","70","104581","0.0-6.0-0.32","DIGA","3","m","rechts","58","","fixation","","","",""
"1687","img/0_210.png","70","image-keyboard-response","71","106268","0.0-6.0-1.32","DIGA","3","m","rechts","58","","","object","f","0","true"
"null","<div style=""font-size:60px;"">+</div>","null","html-keyboard-response","72","106573","0.0-6.0-0.33","DIGA","3","m","rechts","58","","fixation","","","",""
"1917","img/150_60.png","70","image-keyboard-response","73","108490","0.0-6.0-1.33","DIGA","3","m","rechts","58","","","object","f","150","true"
"null","<div style=""font-size:60px;"">+</div>","null","html-keyboard-response","74","108796","0.0-6.0-0.34","DIGA","3","m","rechts","58","","fixation","","","",""
"2090","img/L30_180.png","74","image-keyboard-response","75","110887","0.0-6.0-1.34","DIGA","3","m","rechts","58","","","object","j","30","true"
"null","<div style=""font-size:60px;"">+</div>","null","html-keyboard-response","76","111239","0.0-6.0-0.35","DIGA","3","m","rechts","58","","fixation","","","",""
"1799","img/120_180.png","70","image-keyboard-response","77","113039","0.0-6.0-1.35","DIGA","3","m","rechts","58","","","object","f","120","true"
"null","<div style=""font-size:60px;"">+</div>","null","html-keyboard-response","78","113340","0.0-6.0-0.36","DIGA","3","m","rechts","58","","fixation","","","",""
"1567","img/120_330.png","74","image-keyboard-response","79","114907","0.0-6.0-1.36","DIGA","3","m","rechts","58","","","object","j","120","true"
"null","<div style=""font-size:60px;"">+</div>","null","html-keyboard-response","80","115412","0.0-6.0-0.37","DIGA","3","m","rechts","58","","fixation","","","",""
"1783","img/60_330.png","74","image-keyboard-response","81","117196","0.0-6.0-1.37","DIGA","3","m","rechts","58","","","object","j","60","true"
"null","<div style=""font-size:60px;"">+</div>","null","html-keyboard-response","82","117650","0.0-6.0-0.38","DIGA","3","m","rechts","58","","fixation","","","",""
"1448","img/30_270.png","70","image-keyboard-response","83","119101","0.0-6.0-1.38","DIGA","3","m","rechts","58","","","object","f","30","true"
"null","<div style=""font-size:60px;"">+</div>","null","html-keyboard-response","84","119507","0.0-6.0-0.39","DIGA","3","m","rechts","58","","fixation","","","",""
"1511","img/0_30.png","74","image-keyboard-response","85","121019","0.0-6.0-1.39","DIGA","3","m","rechts","58","","","object","j","0","true"
"null","<div style=""font-size:60px;"">+</div>","null","html-keyboard-response","86","121374","0.0-6.0-0.40","DIGA","3","m","rechts","58","","fixation","","","",""
"2007","img/120_210.png","74","image-keyboard-response","87","123382","0.0-6.0-1.40","DIGA","3","m","rechts","58","","","object","f","120","false"
"null","<div style=""font-size:60px;"">+</div>","null","html-keyboard-response","88","123735","0.0-6.0-0.41","DIGA","3","m","rechts","58","","fixation","","","",""
"1834","img/0_300.png","70","image-keyboard-response","89","125570","0.0-6.0-1.41","DIGA","3","m","rechts","58","","","object","f","0","true"
"null","<div style=""font-size:60px;"">+</div>","null","html-keyboard-response","90","126075","0.0-6.0-0.42","DIGA","3","m","rechts","58","","fixation","","","",""
"2130","img/120_90.png","70","image-keyboard-response","91","128205","0.0-6.0-1.42","DIGA","3","m","rechts","58","","","object","f","120","true"
"null","<div style=""font-size:60px;"">+</div>","null","html-keyboard-response","92","128511","0.0-6.0-0.43","DIGA","3","m","rechts","58","","fixation","","","",""
"1652","img/150_300.png","74","image-keyboard-response","93","130163","0.0-6.0-1.43","DIGA","3","m","rechts","58","","","object","j","150","true"
"null","<div style=""font-size:60px;"">+</div>","null","html-keyboard-response","94","130665","0.0-6.0-0.44","DIGA","3","m","rechts","58","","fixation","","","",""
"1611","img/150_240.png","74","image-keyboard-response","95","132277","0.0-6.0-1.44","DIGA","3","m","rechts","58","","","object","j","150","true"
"null","<div style=""font-size:60px;"">+</div>","null","html-keyboard-response","96","132627","0.0-6.0-0.45","DIGA","3","m","rechts","58","","fixation","","","",""
"1669","img/120_30.png","70","image-keyboard-response","97","134299","0.0-6.0-1.45","DIGA","3","m","rechts","58","","","object","f","120","true"
"null","<div style=""font-size:60px;"">+</div>","null","html-keyboard-response","98","134653","0.0-6.0-0.46","DIGA","3","m","rechts","58","","fixation","","","",""
"1625","img/0_240.png","70","image-keyboard-response","99","136279","0.0-6.0-1.46","DIGA","3","m","rechts","58","","","object","f","0","true"
"null","<div style=""font-size:60px;"">+</div>","null","html-keyboard-response","100","136784","0.0-6.0-0.47","DIGA","3","m","rechts","58","","fixation","","","",""
"1407","img/0_330.png","70","image-keyboard-response","101","138191","0.0-6.0-1.47","DIGA","3","m","rechts","58","","","object","f","0","true"
"null","<div style=""font-size:60px;"">+</div>","null","html-keyboard-response","102","138543","0.0-6.0-0.48","DIGA","3","m","rechts","58","","fixation","","","",""
"1523","img/60_30.png","70","image-keyboard-response","103","140067","0.0-6.0-1.48","DIGA","3","m","rechts","58","","","object","f","60","true"
"null","<div style=""font-size:60px;"">+</div>","null","html-keyboard-response","104","140470","0.0-6.0-0.49","DIGA","3","m","rechts","58","","fixation","","","",""
"1510","img/L90_180.png","74","image-keyboard-response","105","141980","0.0-6.0-1.49","DIGA","3","m","rechts","58","","","object","j","90","true"
"null","<div style=""font-size:60px;"">+</div>","null","html-keyboard-response","106","142431","0.0-6.0-0.50","DIGA","3","m","rechts","58","","fixation","","","",""
"1539","img/90_150.png","74","image-keyboard-response","107","143971","0.0-6.0-1.50","DIGA","3","m","rechts","58","","","object","j","90","true"
"null","<div style=""font-size:60px;"">+</div>","null","html-keyboard-response","108","144276","0.0-6.0-0.51","DIGA","3","m","rechts","58","","fixation","","","",""
"1728","img/90_210.png","70","image-keyboard-response","109","146005","0.0-6.0-1.51","DIGA","3","m","rechts","58","","","object","f","90","true"
"null","<div style=""font-size:60px;"">+</div>","null","html-keyboard-response","110","146407","0.0-6.0-0.52","DIGA","3","m","rechts","58","","fixation","","","",""
"1452","img/90_180.png","70","image-keyboard-response","111","147860","0.0-6.0-1.52","DIGA","3","m","rechts","58","","","object","f","90","true"
"null","<div style=""font-size:60px;"">+</div>","null","html-keyboard-response","112","148166","0.0-6.0-0.53","DIGA","3","m","rechts","58","","fixation","","","",""
"1915","img/0_300.png","70","image-keyboard-response","113","150081","0.0-6.0-1.53","DIGA","3","m","rechts","58","","","object","f","0","true"
"null","<div style=""font-size:60px;"">+</div>","null","html-keyboard-response","114","150385","0.0-6.0-0.54","DIGA","3","m","rechts","58","","fixation","","","",""
"1568","img/90_210.png","70","image-keyboard-response","115","151954","0.0-6.0-1.54","DIGA","3","m","rechts","58","","","object","f","90","true"
"null","<div style=""font-size:60px;"">+</div>","null","html-keyboard-response","116","152357","0.0-6.0-0.55","DIGA","3","m","rechts","58","","fixation","","","",""
"2008","img/60_90.png","70","image-keyboard-response","117","154365","0.0-6.0-1.55","DIGA","3","m","rechts","58","","","object","j","60","false"
"null","<div style=""font-size:60px;"">+</div>","null","html-keyboard-response","118","154770","0.0-6.0-0.56","DIGA","3","m","rechts","58","","fixation","","","",""
"null","img/90_150.png","null","image-keyboard-response","119","157775","0.0-6.0-1.56","DIGA","3","m","rechts","58","","","object","j","90","false"
"null","<div style=""font-size:60px;"">+</div>","null","html-keyboard-response","120","158126","0.0-6.0-0.57","DIGA","3","m","rechts","58","","fixation","","","",""
"1967","img/0_90.png","74","image-keyboard-response","121","160093","0.0-6.0-1.57","DIGA","3","m","rechts","58","","","object","j","0","true"
"null","<div style=""font-size:60px;"">+</div>","null","html-keyboard-response","122","160499","0.0-6.0-0.58","DIGA","3","m","rechts","58","","fixation","","","",""
"1510","img/120_270.png","70","image-keyboard-response","123","162011","0.0-6.0-1.58","DIGA","3","m","rechts","58","","","object","j","120","false"
"null","<div style=""font-size:60px;"">+</div>","null","html-keyboard-response","124","162317","0.0-6.0-0.59","DIGA","3","m","rechts","58","","fixation","","","",""
"1940","img/60_210.png","70","image-keyboard-response","125","164258","0.0-6.0-1.59","DIGA","3","m","rechts","58","","","object","f","60","true"
"null","<div style=""font-size:60px;"">+</div>","null","html-keyboard-response","126","164760","0.0-6.0-0.60","DIGA","3","m","rechts","58","","fixation","","","",""
"1264","img/0_270.png","70","image-keyboard-response","127","166026","0.0-6.0-1.60","DIGA","3","m","rechts","58","","","object","f","0","true"
"null","<div style=""font-size:60px;"">+</div>","null","html-keyboard-response","128","166379","0.0-6.0-0.61","DIGA","3","m","rechts","58","","fixation","","","",""
"2432","img/90_120.png","74","image-keyboard-response","129","168813","0.0-6.0-1.61","DIGA","3","m","rechts","58","","","object","j","90","true"
"null","<div style=""font-size:60px;"">+</div>","null","html-keyboard-response","130","169217","0.0-6.0-0.62","DIGA","3","m","rechts","58","","fixation","","","",""
"1926","img/150_270.png","74","image-keyboard-response","131","171145","0.0-6.0-1.62","DIGA","3","m","rechts","58","","","object","j","150","true"
"null","<div style=""font-size:60px;"">+</div>","null","html-keyboard-response","132","171551","0.0-6.0-0.63","DIGA","3","m","rechts","58","","fixation","","","",""
"1286","img/0_240.png","70","image-keyboard-response","133","172838","0.0-6.0-1.63","DIGA","3","m","rechts","58","","","object","f","0","true"
"null","<div style=""font-size:60px;"">+</div>","null","html-keyboard-response","134","173339","0.0-6.0-0.64","DIGA","3","m","rechts","58","","fixation","","","",""
"1549","img/90_30.png","70","image-keyboard-response","135","174888","0.0-6.0-1.64","DIGA","3","m","rechts","58","","","object","f","90","true"
"null","<div style=""font-size:60px;"">+</div>","null","html-keyboard-response","136","175341","0.0-6.0-0.65","DIGA","3","m","rechts","58","","fixation","","","",""
"1728","img/L60_180.png","74","image-keyboard-response","137","177070","0.0-6.0-1.65","DIGA","3","m","rechts","58","","","object","j","60","true"
"null","<div style=""font-size:60px;"">+</div>","null","html-keyboard-response","138","177373","0.0-6.0-0.66","DIGA","3","m","rechts","58","","fixation","","","",""
"1492","img/L90_180.png","74","image-keyboard-response","139","178866","0.0-6.0-1.66","DIGA","3","m","rechts","58","","","object","j","90","true"
"null","<div style=""font-size:60px;"">+</div>","null","html-keyboard-response","140","179369","0.0-6.0-0.67","DIGA","3","m","rechts","58","","fixation","","","",""
"2656","img/150_180.png","74","image-keyboard-response","141","182026","0.0-6.0-1.67","DIGA","3","m","rechts","58","","","object","f","150","false"
"null","<div style=""font-size:60px;"">+</div>","null","html-keyboard-response","142","182481","0.0-6.0-0.68","DIGA","3","m","rechts","58","","fixation","","","",""
"1447","img/60_330.png","74","image-keyboard-response","143","183929","0.0-6.0-1.68","DIGA","3","m","rechts","58","","","object","j","60","true"
"null","<div style=""font-size:60px;"">+</div>","null","html-keyboard-response","144","184384","0.0-6.0-0.69","DIGA","3","m","rechts","58","","fixation","","","",""
"1518","img/L30_180.png","74","image-keyboard-response","145","185903","0.0-6.0-1.69","DIGA","3","m","rechts","58","","","object","j","30","true"
"null","<div style=""font-size:60px;"">+</div>","null","html-keyboard-response","146","186207","0.0-6.0-0.70","DIGA","3","m","rechts","58","","fixation","","","",""
"1505","img/90_330.png","74","image-keyboard-response","147","187712","0.0-6.0-1.70","DIGA","3","m","rechts","58","","","object","j","90","true"
"null","<div style=""font-size:60px;"">+</div>","null","html-keyboard-response","148","188113","0.0-6.0-0.71","DIGA","3","m","rechts","58","","fixation","","","",""
"1646","img/30_180.png","70","image-keyboard-response","149","189760","0.0-6.0-1.71","DIGA","3","m","rechts","58","","","object","f","30","true"
"null","<div style=""font-size:60px;"">+</div>","null","html-keyboard-response","150","190061","0.0-6.0-0.72","DIGA","3","m","rechts","58","","fixation","","","",""
"1868","img/90_240.png","70","image-keyboard-response","151","191930","0.0-6.0-1.72","DIGA","3","m","rechts","58","","","object","f","90","true"
"null","<div style=""font-size:60px;"">+</div>","null","html-keyboard-response","152","192335","0.0-6.0-0.73","DIGA","3","m","rechts","58","","fixation","","","",""
"2003","img/60_180.png","70","image-keyboard-response","153","194339","0.0-6.0-1.73","DIGA","3","m","rechts","58","","","object","f","60","true"
"null","<div style=""font-size:60px;"">+</div>","null","html-keyboard-response","154","194843","0.0-6.0-0.74","DIGA","3","m","rechts","58","","fixation","","","",""
"1770","img/120_30.png","74","image-keyboard-response","155","196613","0.0-6.0-1.74","DIGA","3","m","rechts","58","","","object","f","120","false"
"null","<div style=""font-size:60px;"">+</div>","null","html-keyboard-response","156","196915","0.0-6.0-0.75","DIGA","3","m","rechts","58","","fixation","","","",""
"2373","img/120_180.png","74","image-keyboard-response","157","199289","0.0-6.0-1.75","DIGA","3","m","rechts","58","","","object","f","120","false"
"null","<div style=""font-size:60px;"">+</div>","null","html-keyboard-response","158","199693","0.0-6.0-0.76","DIGA","3","m","rechts","58","","fixation","","","",""
"1982","img/60_150.png","74","image-keyboard-response","159","201676","0.0-6.0-1.76","DIGA","3","m","rechts","58","","","object","j","60","true"
"null","<div style=""font-size:60px;"">+</div>","null","html-keyboard-response","160","202180","0.0-6.0-0.77","DIGA","3","m","rechts","58","","fixation","","","",""
"1144","img/0_120.png","74","image-keyboard-response","161","203324","0.0-6.0-1.77","DIGA","3","m","rechts","58","","","object","j","0","true"
"null","<div style=""font-size:60px;"">+</div>","null","html-keyboard-response","162","203828","0.0-6.0-0.78","DIGA","3","m","rechts","58","","fixation","","","",""
"1509","img/60_30.png","70","image-keyboard-response","163","205339","0.0-6.0-1.78","DIGA","3","m","rechts","58","","","object","f","60","true"
"null","<div style=""font-size:60px;"">+</div>","null","html-keyboard-response","164","205692","0.0-6.0-0.79","DIGA","3","m","rechts","58","","fixation","","","",""
"null","img/150_300.png","null","image-keyboard-response","165","208698","0.0-6.0-1.79","DIGA","3","m","rechts","58","","","object","j","150","false"
"null","<div style=""font-size:60px;"">+</div>","null","html-keyboard-response","166","209000","0.0-6.0-0.80","DIGA","3","m","rechts","58","","fixation","","","",""
"177","img/30_90.png","74","image-keyboard-response","167","209179","0.0-6.0-1.80","DIGA","3","m","rechts","58","","","object","j","30","true"
"null","<div style=""font-size:60px;"">+</div>","null","html-keyboard-response","168","209684","0.0-6.0-0.81","DIGA","3","m","rechts","58","","fixation","","","",""
"1085","img/0_30.png","74","image-keyboard-response","169","210770","0.0-6.0-1.81","DIGA","3","m","rechts","58","","","object","j","0","true"
"null","<div style=""font-size:60px;"">+</div>","null","html-keyboard-response","170","211223","0.0-6.0-0.82","DIGA","3","m","rechts","58","","fixation","","","",""
"2631","img/30_240.png","70","image-keyboard-response","171","213854","0.0-6.0-1.82","DIGA","3","m","rechts","58","","","object","f","30","true"
"null","<div style=""font-size:60px;"">+</div>","null","html-keyboard-response","172","214305","0.0-6.0-0.83","DIGA","3","m","rechts","58","","fixation","","","",""
"1594","img/L120_180.png","74","image-keyboard-response","173","215899","0.0-6.0-1.83","DIGA","3","m","rechts","58","","","object","j","120","true"
"null","<div style=""font-size:60px;"">+</div>","null","html-keyboard-response","174","216355","0.0-6.0-0.84","DIGA","3","m","rechts","58","","fixation","","","",""
"1501","img/0_150.png","74","image-keyboard-response","175","217856","0.0-6.0-1.84","DIGA","3","m","rechts","58","","","object","j","0","true"
"null","<div style=""font-size:60px;"">+</div>","null","html-keyboard-response","176","218159","0.0-6.0-0.85","DIGA","3","m","rechts","58","","fixation","","","",""
"1600","img/150_60.png","70","image-keyboard-response","177","219759","0.0-6.0-1.85","DIGA","3","m","rechts","58","","","object","f","150","true"
"null","<div style=""font-size:60px;"">+</div>","null","html-keyboard-response","178","220260","0.0-6.0-0.86","DIGA","3","m","rechts","58","","fixation","","","",""
"1619","img/0_330.png","70","image-keyboard-response","179","221880","0.0-6.0-1.86","DIGA","3","m","rechts","58","","","object","f","0","true"
"null","<div style=""font-size:60px;"">+</div>","null","html-keyboard-response","180","222233","0.0-6.0-0.87","DIGA","3","m","rechts","58","","fixation","","","",""
"1647","img/150_90.png","70","image-keyboard-response","181","223881","0.0-6.0-1.87","DIGA","3","m","rechts","58","","","object","f","150","true"
"null","<div style=""font-size:60px;"">+</div>","null","html-keyboard-response","182","224386","0.0-6.0-0.88","DIGA","3","m","rechts","58","","fixation","","","",""
"1588","img/30_60.png","74","image-keyboard-response","183","225975","0.0-6.0-1.88","DIGA","3","m","rechts","58","","","object","j","30","true"
"null","<div style=""font-size:60px;"">+</div>","null","html-keyboard-response","184","226380","0.0-6.0-0.89","DIGA","3","m","rechts","58","","fixation","","","",""
"null","img/0_60.png","null","image-keyboard-response","185","229384","0.0-6.0-1.89","DIGA","3","m","rechts","58","","","object","j","0","false"
"null","<div style=""font-size:60px;"">+</div>","null","html-keyboard-response","186","229839","0.0-6.0-0.90","DIGA","3","m","rechts","58","","fixation","","","",""
"1655","img/L150_180.png","74","image-keyboard-response","187","231494","0.0-6.0-1.90","DIGA","3","m","rechts","58","","","object","j","150","true"
"null","<div style=""font-size:60px;"">+</div>","null","html-keyboard-response","188","231798","0.0-6.0-0.91","DIGA","3","m","rechts","58","","fixation","","","",""
"1275","img/0_210.png","70","image-keyboard-response","189","233074","0.0-6.0-1.91","DIGA","3","m","rechts","58","","","object","f","0","true"
"null","<div style=""font-size:60px;"">+</div>","null","html-keyboard-response","190","233430","0.0-6.0-0.92","DIGA","3","m","rechts","58","","fixation","","","",""
"1671","img/30_300.png","70","image-keyboard-response","191","235101","0.0-6.0-1.92","DIGA","3","m","rechts","58","","","object","f","30","true"
"null","<div style=""font-size:60px;"">+</div>","null","html-keyboard-response","192","235607","0.0-6.0-0.93","DIGA","3","m","rechts","58","","fixation","","","",""
"1626","img/150_240.png","74","image-keyboard-response","193","237234","0.0-6.0-1.93","DIGA","3","m","rechts","58","","","object","j","150","true"
"null","<div style=""font-size:60px;"">+</div>","null","html-keyboard-response","194","237737","0.0-6.0-0.94","DIGA","3","m","rechts","58","","fixation","","","",""
"1503","img/120_90.png","70","image-keyboard-response","195","239242","0.0-6.0-1.94","DIGA","3","m","rechts","58","","","object","f","120","true"
"null","<div style=""font-size:60px;"">+</div>","null","html-keyboard-response","196","239595","0.0-6.0-0.95","DIGA","3","m","rechts","58","","fixation","","","",""
"1235","img/150_120.png","70","image-keyboard-response","197","240830","0.0-6.0-1.95","DIGA","3","m","rechts","58","","","object","f","150","true"
"null","<div style=""font-size:60px;"">+</div>","null","html-keyboard-response","198","241336","0.0-6.0-0.96","DIGA","3","m","rechts","58","","fixation","","","",""
"1594","img/60_270.png","70","image-keyboard-response","199","242930","0.0-6.0-1.96","DIGA","3","m","rechts","58","","","object","f","60","true"
"null","<div style=""font-size:60px;"">+</div>","null","html-keyboard-response","200","243285","0.0-6.0-0.97","DIGA","3","m","rechts","58","","fixation","","","",""
"1876","img/30_120.png","74","image-keyboard-response","201","245163","0.0-6.0-1.97","DIGA","3","m","rechts","58","","","object","j","30","true"
"null","<div style=""font-size:60px;"">+</div>","null","html-keyboard-response","202","245619","0.0-6.0-0.98","DIGA","3","m","rechts","58","","fixation","","","",""
"1892","img/90_60.png","70","image-keyboard-response","203","247511","0.0-6.0-1.98","DIGA","3","m","rechts","58","","","object","f","90","true"
"null","<div style=""font-size:60px;"">+</div>","null","html-keyboard-response","204","247917","0.0-6.0-0.99","DIGA","3","m","rechts","58","","fixation","","","",""
"2026","img/90_300.png","74","image-keyboard-response","205","249944","0.0-6.0-1.99","DIGA","3","m","rechts","58","","","object","j","90","true"
"null","<div style=""font-size:60px;"">+</div>","null","html-keyboard-response","206","250349","0.0-6.0-0.100","DIGA","3","m","rechts","58","","fixation","","","",""
"2154","img/120_150.png","70","image-keyboard-response","207","252504","0.0-6.0-1.100","DIGA","3","m","rechts","58","","","object","j","120","false"
"null","<div style=""font-size:60px;"">+</div>","null","html-keyboard-response","208","252811","0.0-6.0-0.101","DIGA","3","m","rechts","58","","fixation","","","",""
"1480","img/120_330.png","74","image-keyboard-response","209","254291","0.0-6.0-1.101","DIGA","3","m","rechts","58","","","object","j","120","true"
"null","<div style=""font-size:60px;"">+</div>","null","html-keyboard-response","210","254644","0.0-6.0-0.102","DIGA","3","m","rechts","58","","fixation","","","",""
"1898","img/120_210.png","74","image-keyboard-response","211","256543","0.0-6.0-1.102","DIGA","3","m","rechts","58","","","object","f","120","false"
"null","<div style=""font-size:60px;"">+</div>","null","html-keyboard-response","212","256845","0.0-6.0-0.103","DIGA","3","m","rechts","58","","fixation","","","",""
"1564","img/30_270.png","70","image-keyboard-response","213","258410","0.0-6.0-1.103","DIGA","3","m","rechts","58","","","object","f","30","true"
"null","<div style=""font-size:60px;"">+</div>","null","html-keyboard-response","214","258911","0.0-6.0-0.104","DIGA","3","m","rechts","58","","fixation","","","",""
"1545","img/90_240.png","70","image-keyboard-response","215","260456","0.0-6.0-1.104","DIGA","3","m","rechts","58","","","object","f","90","true"
"null","<div style=""font-size:60px;"">+</div>","null","html-keyboard-response","216","260906","0.0-6.0-0.105","DIGA","3","m","rechts","58","","fixation","","","",""
"1677","img/90_60.png","70","image-keyboard-response","217","262584","0.0-6.0-1.105","DIGA","3","m","rechts","58","","","object","f","90","true"
"null","<div style=""font-size:60px;"">+</div>","null","html-keyboard-response","218","263088","0.0-6.0-0.106","DIGA","3","m","rechts","58","","fixation","","","",""
"2208","img/60_210.png","70","image-keyboard-response","219","265297","0.0-6.0-1.106","DIGA","3","m","rechts","58","","","object","f","60","true"
"null","<div style=""font-size:60px;"">+</div>","null","html-keyboard-response","220","265702","0.0-6.0-0.107","DIGA","3","m","rechts","58","","fixation","","","",""
"1503","img/30_120.png","74","image-keyboard-response","221","267205","0.0-6.0-1.107","DIGA","3","m","rechts","58","","","object","j","30","true"
"null","<div style=""font-size:60px;"">+</div>","null","html-keyboard-response","222","267709","0.0-6.0-0.108","DIGA","3","m","rechts","58","","fixation","","","",""
"2004","img/150_300.png","74","image-keyboard-response","223","269714","0.0-6.0-1.108","DIGA","3","m","rechts","58","","","object","j","150","true"
"null","<div style=""font-size:60px;"">+</div>","null","html-keyboard-response","224","270020","0.0-6.0-0.109","DIGA","3","m","rechts","58","","fixation","","","",""
"1488","img/120_330.png","74","image-keyboard-response","225","271509","0.0-6.0-1.109","DIGA","3","m","rechts","58","","","object","j","120","true"
"null","<div style=""font-size:60px;"">+</div>","null","html-keyboard-response","226","271813","0.0-6.0-0.110","DIGA","3","m","rechts","58","","fixation","","","",""
"1771","img/60_150.png","74","image-keyboard-response","227","273585","0.0-6.0-1.110","DIGA","3","m","rechts","58","","","object","j","60","true"
"null","<div style=""font-size:60px;"">+</div>","null","html-keyboard-response","228","273990","0.0-6.0-0.111","DIGA","3","m","rechts","58","","fixation","","","",""
"1514","img/120_210.png","70","image-keyboard-response","229","275505","0.0-6.0-1.111","DIGA","3","m","rechts","58","","","object","f","120","true"
"null","<div style=""font-size:60px;"">+</div>","null","html-keyboard-response","230","276010","0.0-6.0-0.112","DIGA","3","m","rechts","58","","fixation","","","",""
"1623","img/L90_180.png","74","image-keyboard-response","231","277633","0.0-6.0-1.112","DIGA","3","m","rechts","58","","","object","j","90","true"
"null","<div style=""font-size:60px;"">+</div>","null","html-keyboard-response","232","278088","0.0-6.0-0.113","DIGA","3","m","rechts","58","","fixation","","","",""
"1453","img/30_240.png","70","image-keyboard-response","233","279543","0.0-6.0-1.113","DIGA","3","m","rechts","58","","","object","f","30","true"
"null","<div style=""font-size:60px;"">+</div>","null","html-keyboard-response","234","279945","0.0-6.0-0.114","DIGA","3","m","rechts","58","","fixation","","","",""
"1505","img/30_180.png","70","image-keyboard-response","235","281451","0.0-6.0-1.114","DIGA","3","m","rechts","58","","","object","f","30","true"
"null","<div style=""font-size:60px;"">+</div>","null","html-keyboard-response","236","281955","0.0-6.0-0.115","DIGA","3","m","rechts","58","","fixation","","","",""
"1281","img/30_90.png","74","image-keyboard-response","237","283236","0.0-6.0-1.115","DIGA","3","m","rechts","58","","","object","j","30","true"
"null","<div style=""font-size:60px;"">+</div>","null","html-keyboard-response","238","283538","0.0-6.0-0.116","DIGA","3","m","rechts","58","","fixation","","","",""
"1196","img/0_330.png","70","image-keyboard-response","239","284736","0.0-6.0-1.116","DIGA","3","m","rechts","58","","","object","f","0","true"
"null","<div style=""font-size:60px;"">+</div>","null","html-keyboard-response","240","285238","0.0-6.0-0.117","DIGA","3","m","rechts","58","","fixation","","","",""
"1725","img/30_60.png","74","image-keyboard-response","241","286965","0.0-6.0-1.117","DIGA","3","m","rechts","58","","","object","j","30","true"
"null","<div style=""font-size:60px;"">+</div>","null","html-keyboard-response","242","287420","0.0-6.0-0.118","DIGA","3","m","rechts","58","","fixation","","","",""
"1545","img/120_150.png","74","image-keyboard-response","243","288965","0.0-6.0-1.118","DIGA","3","m","rechts","58","","","object","j","120","true"
"null","<div style=""font-size:60px;"">+</div>","null","html-keyboard-response","244","289318","0.0-6.0-0.119","DIGA","3","m","rechts","58","","fixation","","","",""
"1461","img/90_330.png","74","image-keyboard-response","245","290780","0.0-6.0-1.119","DIGA","3","m","rechts","58","","","object","j","90","true"
"null","<div style=""font-size:60px;"">+</div>","null","html-keyboard-response","246","291182","0.0-6.0-0.120","DIGA","3","m","rechts","58","","fixation","","","",""
"1500","img/150_270.png","74","image-keyboard-response","247","292682","0.0-6.0-1.120","DIGA","3","m","rechts","58","","","object","j","150","true"
"null","<div style=""font-size:60px;"">+</div>","null","html-keyboard-response","248","293138","0.0-6.0-0.121","DIGA","3","m","rechts","58","","fixation","","","",""
"1771","img/60_90.png","70","image-keyboard-response","249","294911","0.0-6.0-1.121","DIGA","3","m","rechts","58","","","object","j","60","false"
"null","<div style=""font-size:60px;"">+</div>","null","html-keyboard-response","250","295315","0.0-6.0-0.122","DIGA","3","m","rechts","58","","fixation","","","",""
"1557","img/0_270.png","70","image-keyboard-response","251","296874","0.0-6.0-1.122","DIGA","3","m","rechts","58","","","object","f","0","true"
"null","<div style=""font-size:60px;"">+</div>","null","html-keyboard-response","252","297177","0.0-6.0-0.123","DIGA","3","m","rechts","58","","fixation","","","",""
"2314","img/60_180.png","70","image-keyboard-response","253","299492","0.0-6.0-1.123","DIGA","3","m","rechts","58","","","object","f","60","true"
"null","<div style=""font-size:60px;"">+</div>","null","html-keyboard-response","254","299848","0.0-6.0-0.124","DIGA","3","m","rechts","58","","fixation","","","",""
"1659","img/90_150.png","74","image-keyboard-response","255","301507","0.0-6.0-1.124","DIGA","3","m","rechts","58","","","object","j","90","true"
"null","<div style=""font-size:60px;"">+</div>","null","html-keyboard-response","256","301961","0.0-6.0-0.125","DIGA","3","m","rechts","58","","fixation","","","",""
"1472","img/120_90.png","70","image-keyboard-response","257","303433","0.0-6.0-1.125","DIGA","3","m","rechts","58","","","object","f","120","true"
"null","<div style=""font-size:60px;"">+</div>","null","html-keyboard-response","258","303887","0.0-6.0-0.126","DIGA","3","m","rechts","58","","fixation","","","",""
"1694","img/L120_180.png","74","image-keyboard-response","259","305581","0.0-6.0-1.126","DIGA","3","m","rechts","58","","","object","j","120","true"
"null","<div style=""font-size:60px;"">+</div>","null","html-keyboard-response","260","305983","0.0-6.0-0.127","DIGA","3","m","rechts","58","","fixation","","","",""
"1540","img/90_300.png","74","image-keyboard-response","261","307523","0.0-6.0-1.127","DIGA","3","m","rechts","58","","","object","j","90","true"
"null","<div style=""font-size:60px;"">+</div>","null","html-keyboard-response","262","307979","0.0-6.0-0.128","DIGA","3","m","rechts","58","","fixation","","","",""
"1166","img/0_150.png","74","image-keyboard-response","263","309146","0.0-6.0-1.128","DIGA","3","m","rechts","58","","","object","j","0","true"
"null","<div style=""font-size:60px;"">+</div>","null","html-keyboard-response","264","309651","0.0-6.0-0.129","DIGA","3","m","rechts","58","","fixation","","","",""
"1476","img/L60_180.png","74","image-keyboard-response","265","311128","0.0-6.0-1.129","DIGA","3","m","rechts","58","","","object","j","60","true"
"null","<div style=""font-size:60px;"">+</div>","null","html-keyboard-response","266","311630","0.0-6.0-0.130","DIGA","3","m","rechts","58","","fixation","","","",""
"1509","img/0_240.png","70","image-keyboard-response","267","313139","0.0-6.0-1.130","DIGA","3","m","rechts","58","","","object","f","0","true"
"null","<div style=""font-size:60px;"">+</div>","null","html-keyboard-response","268","313593","0.0-6.0-0.131","DIGA","3","m","rechts","58","","fixation","","","",""
"1565","img/150_180.png","70","image-keyboard-response","269","315158","0.0-6.0-1.131","DIGA","3","m","rechts","58","","","object","f","150","true"
"null","<div style=""font-size:60px;"">+</div>","null","html-keyboard-response","270","315462","0.0-6.0-0.132","DIGA","3","m","rechts","58","","fixation","","","",""
"2140","img/90_180.png","70","image-keyboard-response","271","317602","0.0-6.0-1.132","DIGA","3","m","rechts","58","","","object","f","90","true"
"null","<div style=""font-size:60px;"">+</div>","null","html-keyboard-response","272","318108","0.0-6.0-0.133","DIGA","3","m","rechts","58","","fixation","","","",""
"1513","img/30_300.png","70","image-keyboard-response","273","319621","0.0-6.0-1.133","DIGA","3","m","rechts","58","","","object","f","30","true"
"null","<div style=""font-size:60px;"">+</div>","null","html-keyboard-response","274","320023","0.0-6.0-0.134","DIGA","3","m","rechts","58","","fixation","","","",""
"1444","img/60_30.png","74","image-keyboard-response","275","321467","0.0-6.0-1.134","DIGA","3","m","rechts","58","","","object","f","60","false"
"null","<div style=""font-size:60px;"">+</div>","null","html-keyboard-response","276","321770","0.0-6.0-0.135","DIGA","3","m","rechts","58","","fixation","","","",""
"1527","img/150_90.png","74","image-keyboard-response","277","323297","0.0-6.0-1.135","DIGA","3","m","rechts","58","","","object","f","150","false"
"null","<div style=""font-size:60px;"">+</div>","null","html-keyboard-response","278","323801","0.0-6.0-0.136","DIGA","3","m","rechts","58","","fixation","","","",""
"1146","img/0_90.png","74","image-keyboard-response","279","324950","0.0-6.0-1.136","DIGA","3","m","rechts","58","","","object","j","0","true"
"null","<div style=""font-size:60px;"">+</div>","null","html-keyboard-response","280","325404","0.0-6.0-0.137","DIGA","3","m","rechts","58","","fixation","","","",""
"1672","img/120_30.png","70","image-keyboard-response","281","327076","0.0-6.0-1.137","DIGA","3","m","rechts","58","","","object","f","120","true"
"null","<div style=""font-size:60px;"">+</div>","null","html-keyboard-response","282","327481","0.0-6.0-0.138","DIGA","3","m","rechts","58","","fixation","","","",""
"1682","img/150_120.png","70","image-keyboard-response","283","329165","0.0-6.0-1.138","DIGA","3","m","rechts","58","","","object","f","150","true"
"null","<div style=""font-size:60px;"">+</div>","null","html-keyboard-response","284","329617","0.0-6.0-0.139","DIGA","3","m","rechts","58","","fixation","","","",""
"1142","img/0_30.png","74","image-keyboard-response","285","330760","0.0-6.0-1.139","DIGA","3","m","rechts","58","","","object","j","0","true"
"null","<div style=""font-size:60px;"">+</div>","null","html-keyboard-response","286","331115","0.0-6.0-0.140","DIGA","3","m","rechts","58","","fixation","","","",""
"1168","img/0_120.png","74","image-keyboard-response","287","332284","0.0-6.0-1.140","DIGA","3","m","rechts","58","","","object","j","0","true"
"null","<div style=""font-size:60px;"">+</div>","null","html-keyboard-response","288","332735","0.0-6.0-0.141","DIGA","3","m","rechts","58","","fixation","","","",""
"2379","img/150_240.png","70","image-keyboard-response","289","335115","0.0-6.0-1.141","DIGA","3","m","rechts","58","","","object","j","150","false"
"null","<div style=""font-size:60px;"">+</div>","null","html-keyboard-response","290","335621","0.0-6.0-0.142","DIGA","3","m","rechts","58","","fixation","","","",""
"1739","img/120_180.png","74","image-keyboard-response","291","337360","0.0-6.0-1.142","DIGA","3","m","rechts","58","","","object","f","120","false"
"null","<div style=""font-size:60px;"">+</div>","null","html-keyboard-response","292","337764","0.0-6.0-0.143","DIGA","3","m","rechts","58","","fixation","","","",""
"1278","img/0_60.png","74","image-keyboard-response","293","339042","0.0-6.0-1.143","DIGA","3","m","rechts","58","","","object","j","0","true"
"null","<div style=""font-size:60px;"">+</div>","null","html-keyboard-response","294","339345","0.0-6.0-0.144","DIGA","3","m","rechts","58","","fixation","","","",""
"1520","img/60_270.png","70","image-keyboard-response","295","340865","0.0-6.0-1.144","DIGA","3","m","rechts","58","","","object","f","60","true"
"null","<div style=""font-size:60px;"">+</div>","null","html-keyboard-response","296","341319","0.0-6.0-0.145","DIGA","3","m","rechts","58","","fixation","","","",""
"2531","img/120_270.png","74","image-keyboard-response","297","343850","0.0-6.0-1.145","DIGA","3","m","rechts","58","","","object","j","120","true"
"null","<div style=""font-size:60px;"">+</div>","null","html-keyboard-response","298","344355","0.0-6.0-0.146","DIGA","3","m","rechts","58","","fixation","","","",""
"2067","img/150_60.png","70","image-keyboard-response","299","346422","0.0-6.0-1.146","DIGA","3","m","rechts","58","","","object","f","150","true"
"null","<div style=""font-size:60px;"">+</div>","null","html-keyboard-response","300","346824","0.0-6.0-0.147","DIGA","3","m","rechts","58","","fixation","","","",""
"1389","img/0_210.png","70","image-keyboard-response","301","348214","0.0-6.0-1.147","DIGA","3","m","rechts","58","","","object","f","0","true"
"null","<div style=""font-size:60px;"">+</div>","null","html-keyboard-response","302","348719","0.0-6.0-0.148","DIGA","3","m","rechts","58","","fixation","","","",""
"1454","img/30_270.png","70","image-keyboard-response","303","350175","0.0-6.0-1.148","DIGA","3","m","rechts","58","","","object","f","30","true"
"null","<div style=""font-size:60px;"">+</div>","null","html-keyboard-response","304","350577","0.0-6.0-0.149","DIGA","3","m","rechts","58","","fixation","","","",""
"1519","img/L150_180.png","74","image-keyboard-response","305","352096","0.0-6.0-1.149","DIGA","3","m","rechts","58","","","object","j","150","true"
"null","<div style=""font-size:60px;"">+</div>","null","html-keyboard-response","306","352448","0.0-6.0-0.150","DIGA","3","m","rechts","58","","fixation","","","",""
"1142","img/0_300.png","70","image-keyboard-response","307","353591","0.0-6.0-1.150","DIGA","3","m","rechts","58","","","object","f","0","true"
"null","<div style=""font-size:60px;"">+</div>","null","html-keyboard-response","308","353897","0.0-6.0-0.151","DIGA","3","m","rechts","58","","fixation","","","",""
"1765","img/90_120.png","74","image-keyboard-response","309","355663","0.0-6.0-1.151","DIGA","3","m","rechts","58","","","object","j","90","true"
"null","<div style=""font-size:60px;"">+</div>","null","html-keyboard-response","310","356114","0.0-6.0-0.152","DIGA","3","m","rechts","58","","fixation","","","",""
"1704","img/90_210.png","70","image-keyboard-response","311","357818","0.0-6.0-1.152","DIGA","3","m","rechts","58","","","object","f","90","true"
"null","<div style=""font-size:60px;"">+</div>","null","html-keyboard-response","312","358319","0.0-6.0-0.153","DIGA","3","m","rechts","58","","fixation","","","",""
"1379","img/L30_180.png","74","image-keyboard-response","313","359699","0.0-6.0-1.153","DIGA","3","m","rechts","58","","","object","j","30","true"
"null","<div style=""font-size:60px;"">+</div>","null","html-keyboard-response","314","360003","0.0-6.0-0.154","DIGA","3","m","rechts","58","","fixation","","","",""
"1250","img/90_30.png","70","image-keyboard-response","315","361255","0.0-6.0-1.154","DIGA","3","m","rechts","58","","","object","f","90","true"
"null","<div style=""font-size:60px;"">+</div>","null","html-keyboard-response","316","361709","0.0-6.0-0.155","DIGA","3","m","rechts","58","","fixation","","","",""
"1014","img/60_330.png","74","image-keyboard-response","317","362723","0.0-6.0-1.155","DIGA","3","m","rechts","58","","","object","j","60","true"
"null","<div style=""font-size:60px;"">+</div>","null","html-keyboard-response","318","363178","0.0-6.0-0.156","DIGA","3","m","rechts","58","","fixation","","","",""
"1858","img/30_180.png","70","image-keyboard-response","319","365037","0.0-6.0-1.156","DIGA","3","m","rechts","58","","","object","f","30","true"
"null","<div style=""font-size:60px;"">+</div>","null","html-keyboard-response","320","365343","0.0-6.0-0.157","DIGA","3","m","rechts","58","","fixation","","","",""
"2429","img/150_180.png","74","image-keyboard-response","321","367772","0.0-6.0-1.157","DIGA","3","m","rechts","58","","","object","f","150","false"
"null","<div style=""font-size:60px;"">+</div>","null","html-keyboard-response","322","368128","0.0-6.0-0.158","DIGA","3","m","rechts","58","","fixation","","","",""
"1404","img/L30_180.png","70","image-keyboard-response","323","369533","0.0-6.0-1.158","DIGA","3","m","rechts","58","","","object","j","30","false"
"null","<div style=""font-size:60px;"">+</div>","null","html-keyboard-response","324","369835","0.0-6.0-0.159","DIGA","3","m","rechts","58","","fixation","","","",""
"1948","img/90_150.png","74","image-keyboard-response","325","371783","0.0-6.0-1.159","DIGA","3","m","rechts","58","","","object","j","90","true"
"null","<div style=""font-size:60px;"">+</div>","null","html-keyboard-response","326","372086","0.0-6.0-0.160","DIGA","3","m","rechts","58","","fixation","","","",""
"1335","img/0_270.png","70","image-keyboard-response","327","373423","0.0-6.0-1.160","DIGA","3","m","rechts","58","","","object","f","0","true"
"null","<div style=""font-size:60px;"">+</div>","null","html-keyboard-response","328","373927","0.0-6.0-0.161","DIGA","3","m","rechts","58","","fixation","","","",""
"1388","img/90_30.png","70","image-keyboard-response","329","375316","0.0-6.0-1.161","DIGA","3","m","rechts","58","","","object","f","90","true"
"null","<div style=""font-size:60px;"">+</div>","null","html-keyboard-response","330","375773","0.0-6.0-0.162","DIGA","3","m","rechts","58","","fixation","","","",""
"878","img/30_60.png","70","image-keyboard-response","331","376652","0.0-6.0-1.162","DIGA","3","m","rechts","58","","","object","j","30","false"
"null","<div style=""font-size:60px;"">+</div>","null","html-keyboard-response","332","377004","0.0-6.0-0.163","DIGA","3","m","rechts","58","","fixation","","","",""
"2117","img/90_180.png","70","image-keyboard-response","333","379122","0.0-6.0-1.163","DIGA","3","m","rechts","58","","","object","f","90","true"
"null","<div style=""font-size:60px;"">+</div>","null","html-keyboard-response","334","379423","0.0-6.0-0.164","DIGA","3","m","rechts","58","","fixation","","","",""
"1830","img/90_330.png","74","image-keyboard-response","335","381253","0.0-6.0-1.164","DIGA","3","m","rechts","58","","","object","j","90","true"
"null","<div style=""font-size:60px;"">+</div>","null","html-keyboard-response","336","381658","0.0-6.0-0.165","DIGA","3","m","rechts","58","","fixation","","","",""
"1728","img/90_210.png","70","image-keyboard-response","337","383386","0.0-6.0-1.165","DIGA","3","m","rechts","58","","","object","f","90","true"
"null","<div style=""font-size:60px;"">+</div>","null","html-keyboard-response","338","383888","0.0-6.0-0.166","DIGA","3","m","rechts","58","","fixation","","","",""
"1215","img/0_30.png","74","image-keyboard-response","339","385104","0.0-6.0-1.166","DIGA","3","m","rechts","58","","","object","j","0","true"
"null","<div style=""font-size:60px;"">+</div>","null","html-keyboard-response","340","385558","0.0-6.0-0.167","DIGA","3","m","rechts","58","","fixation","","","",""
"1539","img/150_90.png","70","image-keyboard-response","341","387099","0.0-6.0-1.167","DIGA","3","m","rechts","58","","","object","f","150","true"
"null","<div style=""font-size:60px;"">+</div>","null","html-keyboard-response","342","387503","0.0-6.0-0.168","DIGA","3","m","rechts","58","","fixation","","","",""
"1230","img/0_330.png","70","image-keyboard-response","343","388734","0.0-6.0-1.168","DIGA","3","m","rechts","58","","","object","f","0","true"
"null","<div style=""font-size:60px;"">+</div>","null","html-keyboard-response","344","389139","0.0-6.0-0.169","DIGA","3","m","rechts","58","","fixation","","","",""
"1445","img/120_150.png","74","image-keyboard-response","345","390585","0.0-6.0-1.169","DIGA","3","m","rechts","58","","","object","j","120","true"
"null","<div style=""font-size:60px;"">+</div>","null","html-keyboard-response","346","390940","0.0-6.0-0.170","DIGA","3","m","rechts","58","","fixation","","","",""
"1489","img/60_150.png","74","image-keyboard-response","347","392429","0.0-6.0-1.170","DIGA","3","m","rechts","58","","","object","j","60","true"
"null","<div style=""font-size:60px;"">+</div>","null","html-keyboard-response","348","392733","0.0-6.0-0.171","DIGA","3","m","rechts","58","","fixation","","","",""
"1706","img/L90_180.png","74","image-keyboard-response","349","394440","0.0-6.0-1.171","DIGA","3","m","rechts","58","","","object","j","90","true"
"null","<div style=""font-size:60px;"">+</div>","null","html-keyboard-response","350","394845","0.0-6.0-0.172","DIGA","3","m","rechts","58","","fixation","","","",""
"1095","img/0_90.png","74","image-keyboard-response","351","395941","0.0-6.0-1.172","DIGA","3","m","rechts","58","","","object","j","0","true"
"null","<div style=""font-size:60px;"">+</div>","null","html-keyboard-response","352","396343","0.0-6.0-0.173","DIGA","3","m","rechts","58","","fixation","","","",""
"2195","img/120_270.png","70","image-keyboard-response","353","398540","0.0-6.0-1.173","DIGA","3","m","rechts","58","","","object","j","120","false"
"null","<div style=""font-size:60px;"">+</div>","null","html-keyboard-response","354","399042","0.0-6.0-0.174","DIGA","3","m","rechts","58","","fixation","","","",""
"1843","img/0_120.png","74","image-keyboard-response","355","400887","0.0-6.0-1.174","DIGA","3","m","rechts","58","","","object","j","0","true"
"null","<div style=""font-size:60px;"">+</div>","null","html-keyboard-response","356","401242","0.0-6.0-0.175","DIGA","3","m","rechts","58","","fixation","","","",""
"1553","img/90_120.png","74","image-keyboard-response","357","402796","0.0-6.0-1.175","DIGA","3","m","rechts","58","","","object","j","90","true"
"null","<div style=""font-size:60px;"">+</div>","null","html-keyboard-response","358","403198","0.0-6.0-0.176","DIGA","3","m","rechts","58","","fixation","","","",""
"1552","img/30_270.png","70","image-keyboard-response","359","404751","0.0-6.0-1.176","DIGA","3","m","rechts","58","","","object","f","30","true"
"null","<div style=""font-size:60px;"">+</div>","null","html-keyboard-response","360","405154","0.0-6.0-0.177","DIGA","3","m","rechts","58","","fixation","","","",""
"1497","img/0_210.png","70","image-keyboard-response","361","406653","0.0-6.0-1.177","DIGA","3","m","rechts","58","","","object","f","0","true"
"null","<div style=""font-size:60px;"">+</div>","null","html-keyboard-response","362","407156","0.0-6.0-0.178","DIGA","3","m","rechts","58","","fixation","","","",""
"1439","img/L60_180.png","74","image-keyboard-response","363","408596","0.0-6.0-1.178","DIGA","3","m","rechts","58","","","object","j","60","true"
"null","<div style=""font-size:60px;"">+</div>","null","html-keyboard-response","364","408950","0.0-6.0-0.179","DIGA","3","m","rechts","58","","fixation","","","",""
"null","img/120_30.png","null","image-keyboard-response","365","411956","0.0-6.0-1.179","DIGA","3","m","rechts","58","","","object","f","120","false"
"null","<div style=""font-size:60px;"">+</div>","null","html-keyboard-response","366","412311","0.0-6.0-0.180","DIGA","3","m","rechts","58","","fixation","","","",""
"1789","img/120_210.png","70","image-keyboard-response","367","414100","0.0-6.0-1.180","DIGA","3","m","rechts","58","","","object","f","120","true"
"null","<div style=""font-size:60px;"">+</div>","null","html-keyboard-response","368","414452","0.0-6.0-0.181","DIGA","3","m","rechts","58","","fixation","","","",""
"1536","img/150_300.png","74","image-keyboard-response","369","415989","0.0-6.0-1.181","DIGA","3","m","rechts","58","","","object","j","150","true"
"null","<div style=""font-size:60px;"">+</div>","null","html-keyboard-response","370","416292","0.0-6.0-0.182","DIGA","3","m","rechts","58","","fixation","","","",""
"1528","img/30_240.png","70","image-keyboard-response","371","417822","0.0-6.0-1.182","DIGA","3","m","rechts","58","","","object","f","30","true"
"null","<div style=""font-size:60px;"">+</div>","null","html-keyboard-response","372","418174","0.0-6.0-0.183","DIGA","3","m","rechts","58","","fixation","","","",""
"1564","img/0_240.png","70","image-keyboard-response","373","419739","0.0-6.0-1.183","DIGA","3","m","rechts","58","","","object","f","0","true"
"null","<div style=""font-size:60px;"">+</div>","null","html-keyboard-response","374","420193","0.0-6.0-0.184","DIGA","3","m","rechts","58","","fixation","","","",""
"1584","img/150_120.png","70","image-keyboard-response","375","421778","0.0-6.0-1.184","DIGA","3","m","rechts","58","","","object","f","150","true"
"null","<div style=""font-size:60px;"">+</div>","null","html-keyboard-response","376","422184","0.0-6.0-0.185","DIGA","3","m","rechts","58","","fixation","","","",""
"1798","img/150_240.png","74","image-keyboard-response","377","423982","0.0-6.0-1.185","DIGA","3","m","rechts","58","","","object","j","150","true"
"null","<div style=""font-size:60px;"">+</div>","null","html-keyboard-response","378","424435","0.0-6.0-0.186","DIGA","3","m","rechts","58","","fixation","","","",""
"1536","img/150_270.png","74","image-keyboard-response","379","425972","0.0-6.0-1.186","DIGA","3","m","rechts","58","","","object","j","150","true"
"null","<div style=""font-size:60px;"">+</div>","null","html-keyboard-response","380","426278","0.0-6.0-0.187","DIGA","3","m","rechts","58","","fixation","","","",""
"1622","img/90_300.png","70","image-keyboard-response","381","427900","0.0-6.0-1.187","DIGA","3","m","rechts","58","","","object","j","90","false"
"null","<div style=""font-size:60px;"">+</div>","null","html-keyboard-response","382","428353","0.0-6.0-0.188","DIGA","3","m","rechts","58","","fixation","","","",""
"1260","img/0_150.png","74","image-keyboard-response","383","429614","0.0-6.0-1.188","DIGA","3","m","rechts","58","","","object","j","0","true"
"null","<div style=""font-size:60px;"">+</div>","null","html-keyboard-response","384","430117","0.0-6.0-0.189","DIGA","3","m","rechts","58","","fixation","","","",""
"1640","img/120_330.png","74","image-keyboard-response","385","431758","0.0-6.0-1.189","DIGA","3","m","rechts","58","","","object","j","120","true"
"null","<div style=""font-size:60px;"">+</div>","null","html-keyboard-response","386","432213","0.0-6.0-0.190","DIGA","3","m","rechts","58","","fixation","","","",""
"960","img/60_330.png","74","image-keyboard-response","387","433173","0.0-6.0-1.190","DIGA","3","m","rechts","58","","","object","j","60","true"
"null","<div style=""font-size:60px;"">+</div>","null","html-keyboard-response","388","433477","0.0-6.0-0.191","DIGA","3","m","rechts","58","","fixation","","","",""
"1449","img/30_90.png","74","image-keyboard-response","389","434928","0.0-6.0-1.191","DIGA","3","m","rechts","58","","","object","j","30","true"
"null","<div style=""font-size:60px;"">+</div>","null","html-keyboard-response","390","435284","0.0-6.0-0.192","DIGA","3","m","rechts","58","","fixation","","","",""
"1648","img/30_300.png","70","image-keyboard-response","391","436933","0.0-6.0-1.192","DIGA","3","m","rechts","58","","","object","f","30","true"
"null","<div style=""font-size:60px;"">+</div>","null","html-keyboard-response","392","437234","0.0-6.0-0.193","DIGA","3","m","rechts","58","","fixation","","","",""
"1495","img/L150_180.png","74","image-keyboard-response","393","438730","0.0-6.0-1.193","DIGA","3","m","rechts","58","","","object","j","150","true"
"null","<div style=""font-size:60px;"">+</div>","null","html-keyboard-response","394","439136","0.0-6.0-0.194","DIGA","3","m","rechts","58","","fixation","","","",""
"null","img/L120_180.png","null","image-keyboard-response","395","442140","0.0-6.0-1.194","DIGA","3","m","rechts","58","","","object","j","120","false"
"null","<div style=""font-size:60px;"">+</div>","null","html-keyboard-response","396","442444","0.0-6.0-0.195","DIGA","3","m","rechts","58","","fixation","","","",""
"1829","img/60_210.png","70","image-keyboard-response","397","444275","0.0-6.0-1.195","DIGA","3","m","rechts","58","","","object","f","60","true"
"null","<div style=""font-size:60px;"">+</div>","null","html-keyboard-response","398","444680","0.0-6.0-0.196","DIGA","3","m","rechts","58","","fixation","","","",""
"1441","img/60_270.png","70","image-keyboard-response","399","446122","0.0-6.0-1.196","DIGA","3","m","rechts","58","","","object","f","60","true"
"null","<div style=""font-size:60px;"">+</div>","null","html-keyboard-response","400","446428","0.0-6.0-0.197","DIGA","3","m","rechts","58","","fixation","","","",""
"1517","img/0_300.png","70","image-keyboard-response","401","447945","0.0-6.0-1.197","DIGA","3","m","rechts","58","","","object","f","0","true"
"null","<div style=""font-size:60px;"">+</div>","null","html-keyboard-response","402","448250","0.0-6.0-0.198","DIGA","3","m","rechts","58","","fixation","","","",""
"1516","img/30_120.png","74","image-keyboard-response","403","449767","0.0-6.0-1.198","DIGA","3","m","rechts","58","","","object","j","30","true"
"null","<div style=""font-size:60px;"">+</div>","null","html-keyboard-response","404","450171","0.0-6.0-0.199","DIGA","3","m","rechts","58","","fixation","","","",""
"1448","img/60_180.png","70","image-keyboard-response","405","451619","0.0-6.0-1.199","DIGA","3","m","rechts","58","","","object","f","60","true"
"null","<div style=""font-size:60px;"">+</div>","null","html-keyboard-response","406","452024","0.0-6.0-0.200","DIGA","3","m","rechts","58","","fixation","","","",""
"1859","img/60_90.png","74","image-keyboard-response","407","453883","0.0-6.0-1.200","DIGA","3","m","rechts","58","","","object","j","60","true"
"null","<div style=""font-size:60px;"">+</div>","null","html-keyboard-response","408","454338","0.0-6.0-0.201","DIGA","3","m","rechts","58","","fixation","","","",""
"1444","img/120_180.png","70","image-keyboard-response","409","455783","0.0-6.0-1.201","DIGA","3","m","rechts","58","","","object","f","120","true"
"null","<div style=""font-size:60px;"">+</div>","null","html-keyboard-response","410","456184","0.0-6.0-0.202","DIGA","3","m","rechts","58","","fixation","","","",""
"1241","img/0_60.png","74","image-keyboard-response","411","457426","0.0-6.0-1.202","DIGA","3","m","rechts","58","","","object","j","0","true"
"null","<div style=""font-size:60px;"">+</div>","null","html-keyboard-response","412","457880","0.0-6.0-0.203","DIGA","3","m","rechts","58","","fixation","","","",""
"1543","img/150_60.png","70","image-keyboard-response","413","459424","0.0-6.0-1.203","DIGA","3","m","rechts","58","","","object","f","150","true"
"null","<div style=""font-size:60px;"">+</div>","null","html-keyboard-response","414","459729","0.0-6.0-0.204","DIGA","3","m","rechts","58","","fixation","","","",""
"1978","img/90_240.png","70","image-keyboard-response","415","461707","0.0-6.0-1.204","DIGA","3","m","rechts","58","","","object","f","90","true"
"null","<div style=""font-size:60px;"">+</div>","null","html-keyboard-response","416","462162","0.0-6.0-0.205","DIGA","3","m","rechts","58","","fixation","","","",""
"2227","img/120_90.png","70","image-keyboard-response","417","464391","0.0-6.0-1.205","DIGA","3","m","rechts","58","","","object","f","120","true"
"null","<div style=""font-size:60px;"">+</div>","null","html-keyboard-response","418","464745","0.0-6.0-0.206","DIGA","3","m","rechts","58","","fixation","","","",""
"1424","img/90_60.png","70","image-keyboard-response","419","466170","0.0-6.0-1.206","DIGA","3","m","rechts","58","","","object","f","90","true"
"null","<div style=""font-size:60px;"">+</div>","null","html-keyboard-response","420","466574","0.0-6.0-0.207","DIGA","3","m","rechts","58","","fixation","","","",""
"1503","img/60_30.png","70","image-keyboard-response","421","468078","0.0-6.0-1.207","DIGA","3","m","rechts","58","","","object","f","60","true"
"18022","<p>Du hast in 84% der Versuche korrekt entschieden.</p><p>Deine durchschnittliche Reaktionszeit war  1594ms.</p><p>Dr&uuml;cke eine beliebige Taste, um die Session zu beenden. Vielen Dank!</p>","72","html-keyboard-response","422","486101","0.0-7.0","DIGA","3","m","rechts","58","","","","","",""
