"rt","stimulus","key_press","trial_type","trial_index","time_elapsed","internal_node_id","subject","session","sex","handedness","age","responses","test_part","condition","correct_response","angle","correct"
"4579","<p>Mental Rotation Experiment.</p> <p>Dr&uuml;cke eine beliebige Taste, um anzufangen.</p>","72","html-keyboard-response","0","4581","0.0-0.0","DIGA","2","m","rechts","58","","","","","",""
"9112","","","survey-text","1","13696","0.0-1.0","DIGA","2","m","rechts","58","{""Q0"":""DIGA""}","","","","",""
"2387","","","survey-text","2","16084","0.0-2.0","DIGA","2","m","rechts","58","{""Q0"":""2""}","","","","",""
"8001","","","survey-multi-choice","3","24088","0.0-3.0","DIGA","2","m","rechts","58","{""Q0"":""m"",""Q1"":""rechts""}","","","","",""
"6267","","","survey-text","4","30356","0.0-4.0","DIGA","2","m","rechts","58","{""Q0"":""58""}","","","","",""
"39794","<p>Stell dir vor, dass du vor einem runden Tisch stehst, auf dem sich ein blauer Ball am Tischrand befindet. Entlang des Tischrands ist jeweils ein verschieden langer Pfeil. Nun bleibst du an deinem Platz vor dem Tisch und rotierst den Tisch entlang des Pfeils (gleiche Richtung und Länge). </p> <img src='img/30_180.png'></img> <br><p> Nachdem du diese (vorgestellte) Rotation durchgef&uuml;hrt hast, schau in Richtung der Tischmitte, und entscheide dann, ob der Ball links oder rechts von dir liegt.</p> <p>Dr&uuml;cke die <strong>'f'</strong>-Taste f&uuml;r links, die <strong>'j'</strong>-Taste f&uuml;r rechts.</p><br><p> Das Bild wird jeweils 1 Sekunde lang pr&auml;sentiert. Du hast 3 Sekunden Zeit eine Entscheidung zu treffen.</p>","70","html-keyboard-response","5","70150","0.0-5.0","DIGA","2","m","rechts","58","","","","","",""
"null","<div style=""font-size:60px;"">+</div>","null","html-keyboard-response","6","71509","0.0-6.0-0.0","DIGA","2","m","rechts","58","","fixation","","","",""
"2355","img/150_120.png","74","image-keyboard-response","7","73865","0.0-6.0-1.0","DIGA","2","m","rechts","58","","","object","f","150","false"
"null","<div style=""font-size:60px;"">+</div>","null","html-keyboard-response","8","74271","0.0-6.0-0.1","DIGA","2","m","rechts","58","","fixation","","","",""
"1926","img/90_180.png","70","image-keyboard-response","9","76198","0.0-6.0-1.1","DIGA","2","m","rechts","58","","","object","f","90","true"
"null","<div style=""font-size:60px;"">+</div>","null","html-keyboard-response","10","76553","0.0-6.0-0.2","DIGA","2","m","rechts","58","","fixation","","","",""
"1846","img/60_210.png","70","image-keyboard-response","11","78400","0.0-6.0-1.2","DIGA","2","m","rechts","58","","","object","f","60","true"
"null","<div style=""font-size:60px;"">+</div>","null","html-keyboard-response","12","78904","0.0-6.0-0.3","DIGA","2","m","rechts","58","","fixation","","","",""
"2466","img/120_90.png","70","image-keyboard-response","13","81371","0.0-6.0-1.3","DIGA","2","m","rechts","58","","","object","f","120","true"
"null","<div style=""font-size:60px;"">+</div>","null","html-keyboard-response","14","81776","0.0-6.0-0.4","DIGA","2","m","rechts","58","","fixation","","","",""
"1804","img/L30_180.png","74","image-keyboard-response","15","83581","0.0-6.0-1.4","DIGA","2","m","rechts","58","","","object","j","30","true"
"null","<div style=""font-size:60px;"">+</div>","null","html-keyboard-response","16","84086","0.0-6.0-0.5","DIGA","2","m","rechts","58","","fixation","","","",""
"1476","img/0_270.png","70","image-keyboard-response","17","85563","0.0-6.0-1.5","DIGA","2","m","rechts","58","","","object","f","0","true"
"null","<div style=""font-size:60px;"">+</div>","null","html-keyboard-response","18","86068","0.0-6.0-0.6","DIGA","2","m","rechts","58","","fixation","","","",""
"1174","img/0_120.png","74","image-keyboard-response","19","87242","0.0-6.0-1.6","DIGA","2","m","rechts","58","","","object","j","0","true"
"null","<div style=""font-size:60px;"">+</div>","null","html-keyboard-response","20","87644","0.0-6.0-0.7","DIGA","2","m","rechts","58","","fixation","","","",""
"2259","img/90_300.png","74","image-keyboard-response","21","89904","0.0-6.0-1.7","DIGA","2","m","rechts","58","","","object","j","90","true"
"null","<div style=""font-size:60px;"">+</div>","null","html-keyboard-response","22","90361","0.0-6.0-0.8","DIGA","2","m","rechts","58","","fixation","","","",""
"2475","img/150_180.png","70","image-keyboard-response","23","92836","0.0-6.0-1.8","DIGA","2","m","rechts","58","","","object","f","150","true"
"null","<div style=""font-size:60px;"">+</div>","null","html-keyboard-response","24","93241","0.0-6.0-0.9","DIGA","2","m","rechts","58","","fixation","","","",""
"2690","img/L150_180.png","74","image-keyboard-response","25","95931","0.0-6.0-1.9","DIGA","2","m","rechts","58","","","object","j","150","true"
"null","<div style=""font-size:60px;"">+</div>","null","html-keyboard-response","26","96333","0.0-6.0-0.10","DIGA","2","m","rechts","58","","fixation","","","",""
"1877","img/30_90.png","74","image-keyboard-response","27","98211","0.0-6.0-1.10","DIGA","2","m","rechts","58","","","object","j","30","true"
"null","<div style=""font-size:60px;"">+</div>","null","html-keyboard-response","28","98667","0.0-6.0-0.11","DIGA","2","m","rechts","58","","fixation","","","",""
"1671","img/150_90.png","70","image-keyboard-response","29","100338","0.0-6.0-1.11","DIGA","2","m","rechts","58","","","object","f","150","true"
"null","<div style=""font-size:60px;"">+</div>","null","html-keyboard-response","30","100740","0.0-6.0-0.12","DIGA","2","m","rechts","58","","fixation","","","",""
"2089","img/90_330.png","74","image-keyboard-response","31","102829","0.0-6.0-1.12","DIGA","2","m","rechts","58","","","object","j","90","true"
"null","<div style=""font-size:60px;"">+</div>","null","html-keyboard-response","32","103286","0.0-6.0-0.13","DIGA","2","m","rechts","58","","fixation","","","",""
"1692","img/30_120.png","74","image-keyboard-response","33","104979","0.0-6.0-1.13","DIGA","2","m","rechts","58","","","object","j","30","true"
"null","<div style=""font-size:60px;"">+</div>","null","html-keyboard-response","34","105283","0.0-6.0-0.14","DIGA","2","m","rechts","58","","fixation","","","",""
"1230","img/0_210.png","70","image-keyboard-response","35","106513","0.0-6.0-1.14","DIGA","2","m","rechts","58","","","object","f","0","true"
"null","<div style=""font-size:60px;"">+</div>","null","html-keyboard-response","36","106967","0.0-6.0-0.15","DIGA","2","m","rechts","58","","fixation","","","",""
"1299","img/0_300.png","70","image-keyboard-response","37","108267","0.0-6.0-1.15","DIGA","2","m","rechts","58","","","object","f","0","true"
"null","<div style=""font-size:60px;"">+</div>","null","html-keyboard-response","38","108572","0.0-6.0-0.16","DIGA","2","m","rechts","58","","fixation","","","",""
"1630","img/0_330.png","70","image-keyboard-response","39","110202","0.0-6.0-1.16","DIGA","2","m","rechts","58","","","object","f","0","true"
"null","<div style=""font-size:60px;"">+</div>","null","html-keyboard-response","40","110507","0.0-6.0-0.17","DIGA","2","m","rechts","58","","fixation","","","",""
"2200","img/L60_180.png","74","image-keyboard-response","41","112708","0.0-6.0-1.17","DIGA","2","m","rechts","58","","","object","j","60","true"
"null","<div style=""font-size:60px;"">+</div>","null","html-keyboard-response","42","113011","0.0-6.0-0.18","DIGA","2","m","rechts","58","","fixation","","","",""
"1735","img/0_240.png","70","image-keyboard-response","43","114746","0.0-6.0-1.18","DIGA","2","m","rechts","58","","","object","f","0","true"
"null","<div style=""font-size:60px;"">+</div>","null","html-keyboard-response","44","115098","0.0-6.0-0.19","DIGA","2","m","rechts","58","","fixation","","","",""
"2460","img/90_120.png","70","image-keyboard-response","45","117559","0.0-6.0-1.19","DIGA","2","m","rechts","58","","","object","j","90","false"
"null","<div style=""font-size:60px;"">+</div>","null","html-keyboard-response","46","118015","0.0-6.0-0.20","DIGA","2","m","rechts","58","","fixation","","","",""
"1606","img/120_30.png","70","image-keyboard-response","47","119622","0.0-6.0-1.20","DIGA","2","m","rechts","58","","","object","f","120","true"
"null","<div style=""font-size:60px;"">+</div>","null","html-keyboard-response","48","120073","0.0-6.0-0.21","DIGA","2","m","rechts","58","","fixation","","","",""
"1675","img/60_330.png","74","image-keyboard-response","49","121750","0.0-6.0-1.21","DIGA","2","m","rechts","58","","","object","j","60","true"
"null","<div style=""font-size:60px;"">+</div>","null","html-keyboard-response","50","122151","0.0-6.0-0.22","DIGA","2","m","rechts","58","","fixation","","","",""
"1883","img/0_30.png","74","image-keyboard-response","51","124034","0.0-6.0-1.22","DIGA","2","m","rechts","58","","","object","j","0","true"
"null","<div style=""font-size:60px;"">+</div>","null","html-keyboard-response","52","124490","0.0-6.0-0.23","DIGA","2","m","rechts","58","","fixation","","","",""
"1829","img/150_240.png","74","image-keyboard-response","53","126320","0.0-6.0-1.23","DIGA","2","m","rechts","58","","","object","j","150","true"
"null","<div style=""font-size:60px;"">+</div>","null","html-keyboard-response","54","126723","0.0-6.0-0.24","DIGA","2","m","rechts","58","","fixation","","","",""
"1700","img/60_30.png","70","image-keyboard-response","55","128425","0.0-6.0-1.24","DIGA","2","m","rechts","58","","","object","f","60","true"
"null","<div style=""font-size:60px;"">+</div>","null","html-keyboard-response","56","128878","0.0-6.0-0.25","DIGA","2","m","rechts","58","","fixation","","","",""
"2889","img/30_180.png","70","image-keyboard-response","57","131767","0.0-6.0-1.25","DIGA","2","m","rechts","58","","","object","f","30","true"
"null","<div style=""font-size:60px;"">+</div>","null","html-keyboard-response","58","132169","0.0-6.0-0.26","DIGA","2","m","rechts","58","","fixation","","","",""
"1709","img/30_60.png","74","image-keyboard-response","59","133879","0.0-6.0-1.26","DIGA","2","m","rechts","58","","","object","j","30","true"
"null","<div style=""font-size:60px;"">+</div>","null","html-keyboard-response","60","134335","0.0-6.0-0.27","DIGA","2","m","rechts","58","","fixation","","","",""
"2112","img/60_90.png","70","image-keyboard-response","61","136448","0.0-6.0-1.27","DIGA","2","m","rechts","58","","","object","j","60","false"
"null","<div style=""font-size:60px;"">+</div>","null","html-keyboard-response","62","136899","0.0-6.0-0.28","DIGA","2","m","rechts","58","","fixation","","","",""
"1743","img/30_240.png","70","image-keyboard-response","63","138643","0.0-6.0-1.28","DIGA","2","m","rechts","58","","","object","f","30","true"
"null","<div style=""font-size:60px;"">+</div>","null","html-keyboard-response","64","138945","0.0-6.0-0.29","DIGA","2","m","rechts","58","","fixation","","","",""
"2196","img/150_270.png","74","image-keyboard-response","65","141141","0.0-6.0-1.29","DIGA","2","m","rechts","58","","","object","j","150","true"
"null","<div style=""font-size:60px;"">+</div>","null","html-keyboard-response","66","141647","0.0-6.0-0.30","DIGA","2","m","rechts","58","","fixation","","","",""
"1972","img/90_60.png","70","image-keyboard-response","67","143619","0.0-6.0-1.30","DIGA","2","m","rechts","58","","","object","f","90","true"
"null","<div style=""font-size:60px;"">+</div>","null","html-keyboard-response","68","143975","0.0-6.0-0.31","DIGA","2","m","rechts","58","","fixation","","","",""
"1601","img/90_30.png","70","image-keyboard-response","69","145580","0.0-6.0-1.31","DIGA","2","m","rechts","58","","","object","f","90","true"
"null","<div style=""font-size:60px;"">+</div>","null","html-keyboard-response","70","145884","0.0-6.0-0.32","DIGA","2","m","rechts","58","","fixation","","","",""
"2158","img/L120_180.png","74","image-keyboard-response","71","148043","0.0-6.0-1.32","DIGA","2","m","rechts","58","","","object","j","120","true"
"null","<div style=""font-size:60px;"">+</div>","null","html-keyboard-response","72","148449","0.0-6.0-0.33","DIGA","2","m","rechts","58","","fixation","","","",""
"2429","img/120_330.png","74","image-keyboard-response","73","150878","0.0-6.0-1.33","DIGA","2","m","rechts","58","","","object","j","120","true"
"null","<div style=""font-size:60px;"">+</div>","null","html-keyboard-response","74","151334","0.0-6.0-0.34","DIGA","2","m","rechts","58","","fixation","","","",""
"1609","img/0_90.png","74","image-keyboard-response","75","152943","0.0-6.0-1.34","DIGA","2","m","rechts","58","","","object","j","0","true"
"null","<div style=""font-size:60px;"">+</div>","null","html-keyboard-response","76","153447","0.0-6.0-0.35","DIGA","2","m","rechts","58","","fixation","","","",""
"2032","img/60_270.png","70","image-keyboard-response","77","155480","0.0-6.0-1.35","DIGA","2","m","rechts","58","","","object","f","60","true"
"null","<div style=""font-size:60px;"">+</div>","null","html-keyboard-response","78","155984","0.0-6.0-0.36","DIGA","2","m","rechts","58","","fixation","","","",""
"1972","img/150_60.png","70","image-keyboard-response","79","157956","0.0-6.0-1.36","DIGA","2","m","rechts","58","","","object","f","150","true"
"null","<div style=""font-size:60px;"">+</div>","null","html-keyboard-response","80","158311","0.0-6.0-0.37","DIGA","2","m","rechts","58","","fixation","","","",""
"null","img/60_180.png","null","image-keyboard-response","81","161318","0.0-6.0-1.37","DIGA","2","m","rechts","58","","","object","f","60","false"
"null","<div style=""font-size:60px;"">+</div>","null","html-keyboard-response","82","161823","0.0-6.0-0.38","DIGA","2","m","rechts","58","","fixation","","","",""
"1692","img/30_300.png","70","image-keyboard-response","83","163515","0.0-6.0-1.38","DIGA","2","m","rechts","58","","","object","f","30","true"
"null","<div style=""font-size:60px;"">+</div>","null","html-keyboard-response","84","164016","0.0-6.0-0.39","DIGA","2","m","rechts","58","","fixation","","","",""
"1426","img/0_150.png","74","image-keyboard-response","85","165444","0.0-6.0-1.39","DIGA","2","m","rechts","58","","","object","j","0","true"
"null","<div style=""font-size:60px;"">+</div>","null","html-keyboard-response","86","165949","0.0-6.0-0.40","DIGA","2","m","rechts","58","","fixation","","","",""
"1621","img/90_210.png","70","image-keyboard-response","87","167570","0.0-6.0-1.40","DIGA","2","m","rechts","58","","","object","f","90","true"
"null","<div style=""font-size:60px;"">+</div>","null","html-keyboard-response","88","168074","0.0-6.0-0.41","DIGA","2","m","rechts","58","","fixation","","","",""
"1929","img/90_150.png","74","image-keyboard-response","89","170005","0.0-6.0-1.41","DIGA","2","m","rechts","58","","","object","j","90","true"
"null","<div style=""font-size:60px;"">+</div>","null","html-keyboard-response","90","170507","0.0-6.0-0.42","DIGA","2","m","rechts","58","","fixation","","","",""
"1784","img/120_270.png","74","image-keyboard-response","91","172292","0.0-6.0-1.42","DIGA","2","m","rechts","58","","","object","j","120","true"
"null","<div style=""font-size:60px;"">+</div>","null","html-keyboard-response","92","172694","0.0-6.0-0.43","DIGA","2","m","rechts","58","","fixation","","","",""
"1640","img/90_240.png","70","image-keyboard-response","93","174334","0.0-6.0-1.43","DIGA","2","m","rechts","58","","","object","f","90","true"
"null","<div style=""font-size:60px;"">+</div>","null","html-keyboard-response","94","174835","0.0-6.0-0.44","DIGA","2","m","rechts","58","","fixation","","","",""
"1643","img/30_270.png","70","image-keyboard-response","95","176479","0.0-6.0-1.44","DIGA","2","m","rechts","58","","","object","f","30","true"
"null","<div style=""font-size:60px;"">+</div>","null","html-keyboard-response","96","176886","0.0-6.0-0.45","DIGA","2","m","rechts","58","","fixation","","","",""
"2642","img/120_150.png","70","image-keyboard-response","97","179528","0.0-6.0-1.45","DIGA","2","m","rechts","58","","","object","j","120","false"
"null","<div style=""font-size:60px;"">+</div>","null","html-keyboard-response","98","179833","0.0-6.0-0.46","DIGA","2","m","rechts","58","","fixation","","","",""
"1502","img/150_300.png","74","image-keyboard-response","99","181336","0.0-6.0-1.46","DIGA","2","m","rechts","58","","","object","j","150","true"
"null","<div style=""font-size:60px;"">+</div>","null","html-keyboard-response","100","181789","0.0-6.0-0.47","DIGA","2","m","rechts","58","","fixation","","","",""
"1928","img/L90_180.png","74","image-keyboard-response","101","183717","0.0-6.0-1.47","DIGA","2","m","rechts","58","","","object","j","90","true"
"null","<div style=""font-size:60px;"">+</div>","null","html-keyboard-response","102","184224","0.0-6.0-0.48","DIGA","2","m","rechts","58","","fixation","","","",""
"1734","img/0_60.png","74","image-keyboard-response","103","185959","0.0-6.0-1.48","DIGA","2","m","rechts","58","","","object","j","0","true"
"null","<div style=""font-size:60px;"">+</div>","null","html-keyboard-response","104","186415","0.0-6.0-0.49","DIGA","2","m","rechts","58","","fixation","","","",""
"2048","img/60_150.png","74","image-keyboard-response","105","188463","0.0-6.0-1.49","DIGA","2","m","rechts","58","","","object","j","60","true"
"null","<div style=""font-size:60px;"">+</div>","null","html-keyboard-response","106","188765","0.0-6.0-0.50","DIGA","2","m","rechts","58","","fixation","","","",""
"2193","img/120_210.png","70","image-keyboard-response","107","190959","0.0-6.0-1.50","DIGA","2","m","rechts","58","","","object","f","120","true"
"null","<div style=""font-size:60px;"">+</div>","null","html-keyboard-response","108","191416","0.0-6.0-0.51","DIGA","2","m","rechts","58","","fixation","","","",""
"2206","img/120_180.png","74","image-keyboard-response","109","193622","0.0-6.0-1.51","DIGA","2","m","rechts","58","","","object","f","120","false"
"null","<div style=""font-size:60px;"">+</div>","null","html-keyboard-response","110","194128","0.0-6.0-0.52","DIGA","2","m","rechts","58","","fixation","","","",""
"1668","img/150_240.png","74","image-keyboard-response","111","195797","0.0-6.0-1.52","DIGA","2","m","rechts","58","","","object","j","150","true"
"null","<div style=""font-size:60px;"">+</div>","null","html-keyboard-response","112","196253","0.0-6.0-0.53","DIGA","2","m","rechts","58","","fixation","","","",""
"1914","img/90_180.png","70","image-keyboard-response","113","198168","0.0-6.0-1.53","DIGA","2","m","rechts","58","","","object","f","90","true"
"null","<div style=""font-size:60px;"">+</div>","null","html-keyboard-response","114","198622","0.0-6.0-0.54","DIGA","2","m","rechts","58","","fixation","","","",""
"1613","img/120_150.png","74","image-keyboard-response","115","200236","0.0-6.0-1.54","DIGA","2","m","rechts","58","","","object","j","120","true"
"null","<div style=""font-size:60px;"">+</div>","null","html-keyboard-response","116","200539","0.0-6.0-0.55","DIGA","2","m","rechts","58","","fixation","","","",""
"2142","img/90_330.png","74","image-keyboard-response","117","202682","0.0-6.0-1.55","DIGA","2","m","rechts","58","","","object","j","90","true"
"null","<div style=""font-size:60px;"">+</div>","null","html-keyboard-response","118","203084","0.0-6.0-0.56","DIGA","2","m","rechts","58","","fixation","","","",""
"1837","img/120_180.png","70","image-keyboard-response","119","204922","0.0-6.0-1.56","DIGA","2","m","rechts","58","","","object","f","120","true"
"null","<div style=""font-size:60px;"">+</div>","null","html-keyboard-response","120","205423","0.0-6.0-0.57","DIGA","2","m","rechts","58","","fixation","","","",""
"1724","img/150_180.png","70","image-keyboard-response","121","207149","0.0-6.0-1.57","DIGA","2","m","rechts","58","","","object","f","150","true"
"null","<div style=""font-size:60px;"">+</div>","null","html-keyboard-response","122","207554","0.0-6.0-0.58","DIGA","2","m","rechts","58","","fixation","","","",""
"2302","img/150_60.png","70","image-keyboard-response","123","209856","0.0-6.0-1.58","DIGA","2","m","rechts","58","","","object","f","150","true"
"null","<div style=""font-size:60px;"">+</div>","null","html-keyboard-response","124","210212","0.0-6.0-0.59","DIGA","2","m","rechts","58","","fixation","","","",""
"1618","img/30_60.png","74","image-keyboard-response","125","211830","0.0-6.0-1.59","DIGA","2","m","rechts","58","","","object","j","30","true"
"null","<div style=""font-size:60px;"">+</div>","null","html-keyboard-response","126","212236","0.0-6.0-0.60","DIGA","2","m","rechts","58","","fixation","","","",""
"1771","img/150_270.png","70","image-keyboard-response","127","214007","0.0-6.0-1.60","DIGA","2","m","rechts","58","","","object","j","150","false"
"null","<div style=""font-size:60px;"">+</div>","null","html-keyboard-response","128","214410","0.0-6.0-0.61","DIGA","2","m","rechts","58","","fixation","","","",""
"2766","img/120_270.png","74","image-keyboard-response","129","217177","0.0-6.0-1.61","DIGA","2","m","rechts","58","","","object","j","120","true"
"null","<div style=""font-size:60px;"">+</div>","null","html-keyboard-response","130","217531","0.0-6.0-0.62","DIGA","2","m","rechts","58","","fixation","","","",""
"1933","img/L150_180.png","74","image-keyboard-response","131","219466","0.0-6.0-1.62","DIGA","2","m","rechts","58","","","object","j","150","true"
"null","<div style=""font-size:60px;"">+</div>","null","html-keyboard-response","132","219872","0.0-6.0-0.63","DIGA","2","m","rechts","58","","fixation","","","",""
"1672","img/120_30.png","70","image-keyboard-response","133","221544","0.0-6.0-1.63","DIGA","2","m","rechts","58","","","object","f","120","true"
"null","<div style=""font-size:60px;"">+</div>","null","html-keyboard-response","134","221896","0.0-6.0-0.64","DIGA","2","m","rechts","58","","fixation","","","",""
"1757","img/60_270.png","70","image-keyboard-response","135","223654","0.0-6.0-1.64","DIGA","2","m","rechts","58","","","object","f","60","true"
"null","<div style=""font-size:60px;"">+</div>","null","html-keyboard-response","136","224060","0.0-6.0-0.65","DIGA","2","m","rechts","58","","fixation","","","",""
"1640","img/0_120.png","74","image-keyboard-response","137","225700","0.0-6.0-1.65","DIGA","2","m","rechts","58","","","object","j","0","true"
"null","<div style=""font-size:60px;"">+</div>","null","html-keyboard-response","138","226107","0.0-6.0-0.66","DIGA","2","m","rechts","58","","fixation","","","",""
"1535","img/30_240.png","70","image-keyboard-response","139","227642","0.0-6.0-1.66","DIGA","2","m","rechts","58","","","object","f","30","true"
"null","<div style=""font-size:60px;"">+</div>","null","html-keyboard-response","140","227944","0.0-6.0-0.67","DIGA","2","m","rechts","58","","fixation","","","",""
"2451","img/30_180.png","70","image-keyboard-response","141","230396","0.0-6.0-1.67","DIGA","2","m","rechts","58","","","object","f","30","true"
"null","<div style=""font-size:60px;"">+</div>","null","html-keyboard-response","142","230847","0.0-6.0-0.68","DIGA","2","m","rechts","58","","fixation","","","",""
"1937","img/L120_180.png","74","image-keyboard-response","143","232784","0.0-6.0-1.68","DIGA","2","m","rechts","58","","","object","j","120","true"
"null","<div style=""font-size:60px;"">+</div>","null","html-keyboard-response","144","233239","0.0-6.0-0.69","DIGA","2","m","rechts","58","","fixation","","","",""
"1686","img/120_90.png","70","image-keyboard-response","145","234925","0.0-6.0-1.69","DIGA","2","m","rechts","58","","","object","f","120","true"
"null","<div style=""font-size:60px;"">+</div>","null","html-keyboard-response","146","235426","0.0-6.0-0.70","DIGA","2","m","rechts","58","","fixation","","","",""
"2569","img/60_210.png","70","image-keyboard-response","147","237995","0.0-6.0-1.70","DIGA","2","m","rechts","58","","","object","f","60","true"
"null","<div style=""font-size:60px;"">+</div>","null","html-keyboard-response","148","238301","0.0-6.0-0.71","DIGA","2","m","rechts","58","","fixation","","","",""
"1871","img/60_330.png","74","image-keyboard-response","149","240172","0.0-6.0-1.71","DIGA","2","m","rechts","58","","","object","j","60","true"
"null","<div style=""font-size:60px;"">+</div>","null","html-keyboard-response","150","240528","0.0-6.0-0.72","DIGA","2","m","rechts","58","","fixation","","","",""
"1970","img/90_60.png","70","image-keyboard-response","151","242500","0.0-6.0-1.72","DIGA","2","m","rechts","58","","","object","f","90","true"
"null","<div style=""font-size:60px;"">+</div>","null","html-keyboard-response","152","242955","0.0-6.0-0.73","DIGA","2","m","rechts","58","","fixation","","","",""
"1771","img/30_300.png","70","image-keyboard-response","153","244726","0.0-6.0-1.73","DIGA","2","m","rechts","58","","","object","f","30","true"
"null","<div style=""font-size:60px;"">+</div>","null","html-keyboard-response","154","245079","0.0-6.0-0.74","DIGA","2","m","rechts","58","","fixation","","","",""
"2202","img/30_90.png","74","image-keyboard-response","155","247281","0.0-6.0-1.74","DIGA","2","m","rechts","58","","","object","j","30","true"
"null","<div style=""font-size:60px;"">+</div>","null","html-keyboard-response","156","247586","0.0-6.0-0.75","DIGA","2","m","rechts","58","","fixation","","","",""
"1725","img/30_120.png","74","image-keyboard-response","157","249311","0.0-6.0-1.75","DIGA","2","m","rechts","58","","","object","j","30","true"
"null","<div style=""font-size:60px;"">+</div>","null","html-keyboard-response","158","249817","0.0-6.0-0.76","DIGA","2","m","rechts","58","","fixation","","","",""
"2145","img/L60_180.png","74","image-keyboard-response","159","251963","0.0-6.0-1.76","DIGA","2","m","rechts","58","","","object","j","60","true"
"null","<div style=""font-size:60px;"">+</div>","null","html-keyboard-response","160","252467","0.0-6.0-0.77","DIGA","2","m","rechts","58","","fixation","","","",""
"2662","img/90_240.png","70","image-keyboard-response","161","255130","0.0-6.0-1.77","DIGA","2","m","rechts","58","","","object","f","90","true"
"null","<div style=""font-size:60px;"">+</div>","null","html-keyboard-response","162","255584","0.0-6.0-0.78","DIGA","2","m","rechts","58","","fixation","","","",""
"1876","img/90_210.png","70","image-keyboard-response","163","257461","0.0-6.0-1.78","DIGA","2","m","rechts","58","","","object","f","90","true"
"null","<div style=""font-size:60px;"">+</div>","null","html-keyboard-response","164","257917","0.0-6.0-0.79","DIGA","2","m","rechts","58","","fixation","","","",""
"2073","img/120_210.png","70","image-keyboard-response","165","259992","0.0-6.0-1.79","DIGA","2","m","rechts","58","","","object","f","120","true"
"null","<div style=""font-size:60px;"">+</div>","null","html-keyboard-response","166","260495","0.0-6.0-0.80","DIGA","2","m","rechts","58","","fixation","","","",""
"2043","img/60_150.png","74","image-keyboard-response","167","262538","0.0-6.0-1.80","DIGA","2","m","rechts","58","","","object","j","60","true"
"null","<div style=""font-size:60px;"">+</div>","null","html-keyboard-response","168","262990","0.0-6.0-0.81","DIGA","2","m","rechts","58","","fixation","","","",""
"1966","img/150_120.png","70","image-keyboard-response","169","264958","0.0-6.0-1.81","DIGA","2","m","rechts","58","","","object","f","150","true"
"null","<div style=""font-size:60px;"">+</div>","null","html-keyboard-response","170","265260","0.0-6.0-0.82","DIGA","2","m","rechts","58","","fixation","","","",""
"1725","img/0_330.png","70","image-keyboard-response","171","266986","0.0-6.0-1.82","DIGA","2","m","rechts","58","","","object","f","0","true"
"null","<div style=""font-size:60px;"">+</div>","null","html-keyboard-response","172","267291","0.0-6.0-0.83","DIGA","2","m","rechts","58","","fixation","","","",""
"2439","img/L30_180.png","74","image-keyboard-response","173","269731","0.0-6.0-1.83","DIGA","2","m","rechts","58","","","object","j","30","true"
"null","<div style=""font-size:60px;"">+</div>","null","html-keyboard-response","174","270037","0.0-6.0-0.84","DIGA","2","m","rechts","58","","fixation","","","",""
"1677","img/0_270.png","70","image-keyboard-response","175","271714","0.0-6.0-1.84","DIGA","2","m","rechts","58","","","object","f","0","true"
"null","<div style=""font-size:60px;"">+</div>","null","html-keyboard-response","176","272167","0.0-6.0-0.85","DIGA","2","m","rechts","58","","fixation","","","",""
"1697","img/0_240.png","70","image-keyboard-response","177","273865","0.0-6.0-1.85","DIGA","2","m","rechts","58","","","object","f","0","true"
"null","<div style=""font-size:60px;"">+</div>","null","html-keyboard-response","178","274320","0.0-6.0-0.86","DIGA","2","m","rechts","58","","fixation","","","",""
"1866","img/90_120.png","74","image-keyboard-response","179","276186","0.0-6.0-1.86","DIGA","2","m","rechts","58","","","object","j","90","true"
"null","<div style=""font-size:60px;"">+</div>","null","html-keyboard-response","180","276537","0.0-6.0-0.87","DIGA","2","m","rechts","58","","fixation","","","",""
"1562","img/30_270.png","70","image-keyboard-response","181","278099","0.0-6.0-1.87","DIGA","2","m","rechts","58","","","object","f","30","true"
"null","<div style=""font-size:60px;"">+</div>","null","html-keyboard-response","182","278454","0.0-6.0-0.88","DIGA","2","m","rechts","58","","fixation","","","",""
"1741","img/60_90.png","74","image-keyboard-response","183","280196","0.0-6.0-1.88","DIGA","2","m","rechts","58","","","object","j","60","true"
"null","<div style=""font-size:60px;"">+</div>","null","html-keyboard-response","184","280647","0.0-6.0-0.89","DIGA","2","m","rechts","58","","fixation","","","",""
"2438","img/150_90.png","70","image-keyboard-response","185","283086","0.0-6.0-1.89","DIGA","2","m","rechts","58","","","object","f","150","true"
"null","<div style=""font-size:60px;"">+</div>","null","html-keyboard-response","186","283491","0.0-6.0-0.90","DIGA","2","m","rechts","58","","fixation","","","",""
"2809","img/90_150.png","70","image-keyboard-response","187","286301","0.0-6.0-1.90","DIGA","2","m","rechts","58","","","object","j","90","false"
"null","<div style=""font-size:60px;"">+</div>","null","html-keyboard-response","188","286655","0.0-6.0-0.91","DIGA","2","m","rechts","58","","fixation","","","",""
"1876","img/0_300.png","70","image-keyboard-response","189","288531","0.0-6.0-1.91","DIGA","2","m","rechts","58","","","object","f","0","true"
"null","<div style=""font-size:60px;"">+</div>","null","html-keyboard-response","190","288987","0.0-6.0-0.92","DIGA","2","m","rechts","58","","fixation","","","",""
"1689","img/0_30.png","74","image-keyboard-response","191","290677","0.0-6.0-1.92","DIGA","2","m","rechts","58","","","object","j","0","true"
"null","<div style=""font-size:60px;"">+</div>","null","html-keyboard-response","192","291132","0.0-6.0-0.93","DIGA","2","m","rechts","58","","fixation","","","",""
"1761","img/0_60.png","74","image-keyboard-response","193","292894","0.0-6.0-1.93","DIGA","2","m","rechts","58","","","object","j","0","true"
"null","<div style=""font-size:60px;"">+</div>","null","html-keyboard-response","194","293400","0.0-6.0-0.94","DIGA","2","m","rechts","58","","fixation","","","",""
"1641","img/0_90.png","74","image-keyboard-response","195","295042","0.0-6.0-1.94","DIGA","2","m","rechts","58","","","object","j","0","true"
"null","<div style=""font-size:60px;"">+</div>","null","html-keyboard-response","196","295343","0.0-6.0-0.95","DIGA","2","m","rechts","58","","fixation","","","",""
"1873","img/90_30.png","70","image-keyboard-response","197","297217","0.0-6.0-1.95","DIGA","2","m","rechts","58","","","object","f","90","true"
"null","<div style=""font-size:60px;"">+</div>","null","html-keyboard-response","198","297524","0.0-6.0-0.96","DIGA","2","m","rechts","58","","fixation","","","",""
"1979","img/60_30.png","70","image-keyboard-response","199","299503","0.0-6.0-1.96","DIGA","2","m","rechts","58","","","object","f","60","true"
"null","<div style=""font-size:60px;"">+</div>","null","html-keyboard-response","200","299808","0.0-6.0-0.97","DIGA","2","m","rechts","58","","fixation","","","",""
"1855","img/L90_180.png","74","image-keyboard-response","201","301663","0.0-6.0-1.97","DIGA","2","m","rechts","58","","","object","j","90","true"
"null","<div style=""font-size:60px;"">+</div>","null","html-keyboard-response","202","302169","0.0-6.0-0.98","DIGA","2","m","rechts","58","","fixation","","","",""
"2546","img/150_300.png","74","image-keyboard-response","203","304716","0.0-6.0-1.98","DIGA","2","m","rechts","58","","","object","j","150","true"
"null","<div style=""font-size:60px;"">+</div>","null","html-keyboard-response","204","305121","0.0-6.0-0.99","DIGA","2","m","rechts","58","","fixation","","","",""
"1621","img/60_180.png","70","image-keyboard-response","205","306742","0.0-6.0-1.99","DIGA","2","m","rechts","58","","","object","f","60","true"
"null","<div style=""font-size:60px;"">+</div>","null","html-keyboard-response","206","307098","0.0-6.0-0.100","DIGA","2","m","rechts","58","","fixation","","","",""
"2189","img/120_330.png","74","image-keyboard-response","207","309288","0.0-6.0-1.100","DIGA","2","m","rechts","58","","","object","j","120","true"
"null","<div style=""font-size:60px;"">+</div>","null","html-keyboard-response","208","309592","0.0-6.0-0.101","DIGA","2","m","rechts","58","","fixation","","","",""
"1716","img/0_210.png","70","image-keyboard-response","209","311310","0.0-6.0-1.101","DIGA","2","m","rechts","58","","","object","f","0","true"
"null","<div style=""font-size:60px;"">+</div>","null","html-keyboard-response","210","311615","0.0-6.0-0.102","DIGA","2","m","rechts","58","","fixation","","","",""
"1829","img/90_300.png","74","image-keyboard-response","211","313445","0.0-6.0-1.102","DIGA","2","m","rechts","58","","","object","j","90","true"
"null","<div style=""font-size:60px;"">+</div>","null","html-keyboard-response","212","313801","0.0-6.0-0.103","DIGA","2","m","rechts","58","","fixation","","","",""
"2623","img/0_150.png","74","image-keyboard-response","213","316425","0.0-6.0-1.103","DIGA","2","m","rechts","58","","","object","j","0","true"
"null","<div style=""font-size:60px;"">+</div>","null","html-keyboard-response","214","316779","0.0-6.0-0.104","DIGA","2","m","rechts","58","","fixation","","","",""
"2951","img/150_270.png","74","image-keyboard-response","215","319732","0.0-6.0-1.104","DIGA","2","m","rechts","58","","","object","j","150","true"
"null","<div style=""font-size:60px;"">+</div>","null","html-keyboard-response","216","320237","0.0-6.0-0.105","DIGA","2","m","rechts","58","","fixation","","","",""
"1750","img/90_240.png","70","image-keyboard-response","217","321989","0.0-6.0-1.105","DIGA","2","m","rechts","58","","","object","f","90","true"
"null","<div style=""font-size:60px;"">+</div>","null","html-keyboard-response","218","322442","0.0-6.0-0.106","DIGA","2","m","rechts","58","","fixation","","","",""
"1540","img/0_150.png","74","image-keyboard-response","219","323984","0.0-6.0-1.106","DIGA","2","m","rechts","58","","","object","j","0","true"
"null","<div style=""font-size:60px;"">+</div>","null","html-keyboard-response","220","324440","0.0-6.0-0.107","DIGA","2","m","rechts","58","","fixation","","","",""
"1719","img/60_30.png","70","image-keyboard-response","221","326159","0.0-6.0-1.107","DIGA","2","m","rechts","58","","","object","f","60","true"
"null","<div style=""font-size:60px;"">+</div>","null","html-keyboard-response","222","326465","0.0-6.0-0.108","DIGA","2","m","rechts","58","","fixation","","","",""
"2521","img/90_210.png","70","image-keyboard-response","223","328988","0.0-6.0-1.108","DIGA","2","m","rechts","58","","","object","f","90","true"
"null","<div style=""font-size:60px;"">+</div>","null","html-keyboard-response","224","329444","0.0-6.0-0.109","DIGA","2","m","rechts","58","","fixation","","","",""
"null","img/150_90.png","null","image-keyboard-response","225","332450","0.0-6.0-1.109","DIGA","2","m","rechts","58","","","object","f","150","false"
"null","<div style=""font-size:60px;"">+</div>","null","html-keyboard-response","226","332752","0.0-6.0-0.110","DIGA","2","m","rechts","58","","fixation","","","",""
"1736","img/120_330.png","74","image-keyboard-response","227","334488","0.0-6.0-1.110","DIGA","2","m","rechts","58","","","object","j","120","true"
"null","<div style=""font-size:60px;"">+</div>","null","html-keyboard-response","228","334842","0.0-6.0-0.111","DIGA","2","m","rechts","58","","fixation","","","",""
"1745","img/120_180.png","70","image-keyboard-response","229","336587","0.0-6.0-1.111","DIGA","2","m","rechts","58","","","object","f","120","true"
"null","<div style=""font-size:60px;"">+</div>","null","html-keyboard-response","230","336942","0.0-6.0-0.112","DIGA","2","m","rechts","58","","fixation","","","",""
"1610","img/90_120.png","74","image-keyboard-response","231","338553","0.0-6.0-1.112","DIGA","2","m","rechts","58","","","object","j","90","true"
"null","<div style=""font-size:60px;"">+</div>","null","html-keyboard-response","232","339059","0.0-6.0-0.113","DIGA","2","m","rechts","58","","fixation","","","",""
"2061","img/120_150.png","70","image-keyboard-response","233","341121","0.0-6.0-1.113","DIGA","2","m","rechts","58","","","object","j","120","false"
"null","<div style=""font-size:60px;"">+</div>","null","html-keyboard-response","234","341574","0.0-6.0-0.114","DIGA","2","m","rechts","58","","fixation","","","",""
"1735","img/0_300.png","70","image-keyboard-response","235","343309","0.0-6.0-1.114","DIGA","2","m","rechts","58","","","object","f","0","true"
"null","<div style=""font-size:60px;"">+</div>","null","html-keyboard-response","236","343615","0.0-6.0-0.115","DIGA","2","m","rechts","58","","fixation","","","",""
"2143","img/L120_180.png","74","image-keyboard-response","237","345759","0.0-6.0-1.115","DIGA","2","m","rechts","58","","","object","j","120","true"
"null","<div style=""font-size:60px;"">+</div>","null","html-keyboard-response","238","346113","0.0-6.0-0.116","DIGA","2","m","rechts","58","","fixation","","","",""
"1635","img/150_60.png","70","image-keyboard-response","239","347749","0.0-6.0-1.116","DIGA","2","m","rechts","58","","","object","f","150","true"
"null","<div style=""font-size:60px;"">+</div>","null","html-keyboard-response","240","348104","0.0-6.0-0.117","DIGA","2","m","rechts","58","","fixation","","","",""
"1720","img/0_330.png","70","image-keyboard-response","241","349825","0.0-6.0-1.117","DIGA","2","m","rechts","58","","","object","f","0","true"
"null","<div style=""font-size:60px;"">+</div>","null","html-keyboard-response","242","350129","0.0-6.0-0.118","DIGA","2","m","rechts","58","","fixation","","","",""
"1612","img/0_210.png","70","image-keyboard-response","243","351741","0.0-6.0-1.118","DIGA","2","m","rechts","58","","","object","f","0","true"
"null","<div style=""font-size:60px;"">+</div>","null","html-keyboard-response","244","352147","0.0-6.0-0.119","DIGA","2","m","rechts","58","","fixation","","","",""
"1810","img/L90_180.png","74","image-keyboard-response","245","353957","0.0-6.0-1.119","DIGA","2","m","rechts","58","","","object","j","90","true"
"null","<div style=""font-size:60px;"">+</div>","null","html-keyboard-response","246","354309","0.0-6.0-0.120","DIGA","2","m","rechts","58","","fixation","","","",""
"1789","img/60_270.png","70","image-keyboard-response","247","356099","0.0-6.0-1.120","DIGA","2","m","rechts","58","","","object","f","60","true"
"null","<div style=""font-size:60px;"">+</div>","null","html-keyboard-response","248","356455","0.0-6.0-0.121","DIGA","2","m","rechts","58","","fixation","","","",""
"2014","img/90_60.png","70","image-keyboard-response","249","358470","0.0-6.0-1.121","DIGA","2","m","rechts","58","","","object","f","90","true"
"null","<div style=""font-size:60px;"">+</div>","null","html-keyboard-response","250","358772","0.0-6.0-0.122","DIGA","2","m","rechts","58","","fixation","","","",""
"1783","img/120_30.png","70","image-keyboard-response","251","360556","0.0-6.0-1.122","DIGA","2","m","rechts","58","","","object","f","120","true"
"null","<div style=""font-size:60px;"">+</div>","null","html-keyboard-response","252","360862","0.0-6.0-0.123","DIGA","2","m","rechts","58","","fixation","","","",""
"1899","img/30_300.png","70","image-keyboard-response","253","362761","0.0-6.0-1.123","DIGA","2","m","rechts","58","","","object","f","30","true"
"null","<div style=""font-size:60px;"">+</div>","null","html-keyboard-response","254","363117","0.0-6.0-0.124","DIGA","2","m","rechts","58","","fixation","","","",""
"2102","img/30_180.png","70","image-keyboard-response","255","365220","0.0-6.0-1.124","DIGA","2","m","rechts","58","","","object","f","30","true"
"null","<div style=""font-size:60px;"">+</div>","null","html-keyboard-response","256","365674","0.0-6.0-0.125","DIGA","2","m","rechts","58","","fixation","","","",""
"1781","img/30_90.png","74","image-keyboard-response","257","367455","0.0-6.0-1.125","DIGA","2","m","rechts","58","","","object","j","30","true"
"null","<div style=""font-size:60px;"">+</div>","null","html-keyboard-response","258","367861","0.0-6.0-0.126","DIGA","2","m","rechts","58","","fixation","","","",""
"1600","img/30_60.png","74","image-keyboard-response","259","369462","0.0-6.0-1.126","DIGA","2","m","rechts","58","","","object","j","30","true"
"null","<div style=""font-size:60px;"">+</div>","null","html-keyboard-response","260","369818","0.0-6.0-0.127","DIGA","2","m","rechts","58","","fixation","","","",""
"1760","img/60_90.png","74","image-keyboard-response","261","371578","0.0-6.0-1.127","DIGA","2","m","rechts","58","","","object","j","60","true"
"null","<div style=""font-size:60px;"">+</div>","null","html-keyboard-response","262","372034","0.0-6.0-0.128","DIGA","2","m","rechts","58","","fixation","","","",""
"2287","img/150_240.png","74","image-keyboard-response","263","374323","0.0-6.0-1.128","DIGA","2","m","rechts","58","","","object","j","150","true"
"null","<div style=""font-size:60px;"">+</div>","null","html-keyboard-response","264","374624","0.0-6.0-0.129","DIGA","2","m","rechts","58","","fixation","","","",""
"1870","img/30_270.png","70","image-keyboard-response","265","376494","0.0-6.0-1.129","DIGA","2","m","rechts","58","","","object","f","30","true"
"null","<div style=""font-size:60px;"">+</div>","null","html-keyboard-response","266","376845","0.0-6.0-0.130","DIGA","2","m","rechts","58","","fixation","","","",""
"1981","img/90_150.png","74","image-keyboard-response","267","378827","0.0-6.0-1.130","DIGA","2","m","rechts","58","","","object","j","90","true"
"null","<div style=""font-size:60px;"">+</div>","null","html-keyboard-response","268","379133","0.0-6.0-0.131","DIGA","2","m","rechts","58","","fixation","","","",""
"1935","img/L60_180.png","74","image-keyboard-response","269","381069","0.0-6.0-1.131","DIGA","2","m","rechts","58","","","object","j","60","true"
"null","<div style=""font-size:60px;"">+</div>","null","html-keyboard-response","270","381425","0.0-6.0-0.132","DIGA","2","m","rechts","58","","fixation","","","",""
"2061","img/60_330.png","74","image-keyboard-response","271","383487","0.0-6.0-1.132","DIGA","2","m","rechts","58","","","object","j","60","true"
"null","<div style=""font-size:60px;"">+</div>","null","html-keyboard-response","272","383894","0.0-6.0-0.133","DIGA","2","m","rechts","58","","fixation","","","",""
"1820","img/90_30.png","70","image-keyboard-response","273","385714","0.0-6.0-1.133","DIGA","2","m","rechts","58","","","object","f","90","true"
"null","<div style=""font-size:60px;"">+</div>","null","html-keyboard-response","274","386069","0.0-6.0-0.134","DIGA","2","m","rechts","58","","fixation","","","",""
"1912","img/L30_180.png","74","image-keyboard-response","275","387982","0.0-6.0-1.134","DIGA","2","m","rechts","58","","","object","j","30","true"
"null","<div style=""font-size:60px;"">+</div>","null","html-keyboard-response","276","388333","0.0-6.0-0.135","DIGA","2","m","rechts","58","","fixation","","","",""
"1918","img/90_180.png","70","image-keyboard-response","277","390251","0.0-6.0-1.135","DIGA","2","m","rechts","58","","","object","f","90","true"
"null","<div style=""font-size:60px;"">+</div>","null","html-keyboard-response","278","390757","0.0-6.0-0.136","DIGA","2","m","rechts","58","","fixation","","","",""
"1650","img/0_60.png","74","image-keyboard-response","279","392407","0.0-6.0-1.136","DIGA","2","m","rechts","58","","","object","j","0","true"
"null","<div style=""font-size:60px;"">+</div>","null","html-keyboard-response","280","392761","0.0-6.0-0.137","DIGA","2","m","rechts","58","","fixation","","","",""
"2144","img/120_90.png","70","image-keyboard-response","281","394905","0.0-6.0-1.137","DIGA","2","m","rechts","58","","","object","f","120","true"
"null","<div style=""font-size:60px;"">+</div>","null","html-keyboard-response","282","395408","0.0-6.0-0.138","DIGA","2","m","rechts","58","","fixation","","","",""
"1736","img/L150_180.png","74","image-keyboard-response","283","397144","0.0-6.0-1.138","DIGA","2","m","rechts","58","","","object","j","150","true"
"null","<div style=""font-size:60px;"">+</div>","null","html-keyboard-response","284","397550","0.0-6.0-0.139","DIGA","2","m","rechts","58","","fixation","","","",""
"1807","img/150_180.png","70","image-keyboard-response","285","399357","0.0-6.0-1.139","DIGA","2","m","rechts","58","","","object","f","150","true"
"null","<div style=""font-size:60px;"">+</div>","null","html-keyboard-response","286","399663","0.0-6.0-0.140","DIGA","2","m","rechts","58","","fixation","","","",""
"2475","img/0_120.png","74","image-keyboard-response","287","402138","0.0-6.0-1.140","DIGA","2","m","rechts","58","","","object","j","0","true"
"null","<div style=""font-size:60px;"">+</div>","null","html-keyboard-response","288","402490","0.0-6.0-0.141","DIGA","2","m","rechts","58","","fixation","","","",""
"2039","img/30_240.png","70","image-keyboard-response","289","404529","0.0-6.0-1.141","DIGA","2","m","rechts","58","","","object","f","30","true"
"null","<div style=""font-size:60px;"">+</div>","null","html-keyboard-response","290","404881","0.0-6.0-0.142","DIGA","2","m","rechts","58","","fixation","","","",""
"1782","img/60_180.png","70","image-keyboard-response","291","406663","0.0-6.0-1.142","DIGA","2","m","rechts","58","","","object","f","60","true"
"null","<div style=""font-size:60px;"">+</div>","null","html-keyboard-response","292","407019","0.0-6.0-0.143","DIGA","2","m","rechts","58","","fixation","","","",""
"1620","img/90_300.png","74","image-keyboard-response","293","408640","0.0-6.0-1.143","DIGA","2","m","rechts","58","","","object","j","90","true"
"null","<div style=""font-size:60px;"">+</div>","null","html-keyboard-response","294","409043","0.0-6.0-0.144","DIGA","2","m","rechts","58","","fixation","","","",""
"1691","img/0_30.png","74","image-keyboard-response","295","410734","0.0-6.0-1.144","DIGA","2","m","rechts","58","","","object","j","0","true"
"null","<div style=""font-size:60px;"">+</div>","null","html-keyboard-response","296","411036","0.0-6.0-0.145","DIGA","2","m","rechts","58","","fixation","","","",""
"1479","img/0_270.png","70","image-keyboard-response","297","412516","0.0-6.0-1.145","DIGA","2","m","rechts","58","","","object","f","0","true"
"null","<div style=""font-size:60px;"">+</div>","null","html-keyboard-response","298","412972","0.0-6.0-0.146","DIGA","2","m","rechts","58","","fixation","","","",""
"1018","img/0_90.png","74","image-keyboard-response","299","413991","0.0-6.0-1.146","DIGA","2","m","rechts","58","","","object","j","0","true"
"null","<div style=""font-size:60px;"">+</div>","null","html-keyboard-response","300","414498","0.0-6.0-0.147","DIGA","2","m","rechts","58","","fixation","","","",""
"1659","img/60_150.png","74","image-keyboard-response","301","416157","0.0-6.0-1.147","DIGA","2","m","rechts","58","","","object","j","60","true"
"null","<div style=""font-size:60px;"">+</div>","null","html-keyboard-response","302","416559","0.0-6.0-0.148","DIGA","2","m","rechts","58","","fixation","","","",""
"1517","img/90_330.png","70","image-keyboard-response","303","418076","0.0-6.0-1.148","DIGA","2","m","rechts","58","","","object","j","90","false"
"null","<div style=""font-size:60px;"">+</div>","null","html-keyboard-response","304","418382","0.0-6.0-0.149","DIGA","2","m","rechts","58","","fixation","","","",""
"1709","img/30_120.png","74","image-keyboard-response","305","420093","0.0-6.0-1.149","DIGA","2","m","rechts","58","","","object","j","30","true"
"null","<div style=""font-size:60px;"">+</div>","null","html-keyboard-response","306","420546","0.0-6.0-0.150","DIGA","2","m","rechts","58","","fixation","","","",""
"1630","img/120_270.png","70","image-keyboard-response","307","422176","0.0-6.0-1.150","DIGA","2","m","rechts","58","","","object","j","120","false"
"null","<div style=""font-size:60px;"">+</div>","null","html-keyboard-response","308","422677","0.0-6.0-0.151","DIGA","2","m","rechts","58","","fixation","","","",""
"2212","img/60_210.png","70","image-keyboard-response","309","424889","0.0-6.0-1.151","DIGA","2","m","rechts","58","","","object","f","60","true"
"null","<div style=""font-size:60px;"">+</div>","null","html-keyboard-response","310","425195","0.0-6.0-0.152","DIGA","2","m","rechts","58","","fixation","","","",""
"1579","img/150_300.png","74","image-keyboard-response","311","426774","0.0-6.0-1.152","DIGA","2","m","rechts","58","","","object","j","150","true"
"null","<div style=""font-size:60px;"">+</div>","null","html-keyboard-response","312","427130","0.0-6.0-0.153","DIGA","2","m","rechts","58","","fixation","","","",""
"1527","img/120_210.png","70","image-keyboard-response","313","428658","0.0-6.0-1.153","DIGA","2","m","rechts","58","","","object","f","120","true"
"null","<div style=""font-size:60px;"">+</div>","null","html-keyboard-response","314","428963","0.0-6.0-0.154","DIGA","2","m","rechts","58","","fixation","","","",""
"1660","img/0_240.png","70","image-keyboard-response","315","430624","0.0-6.0-1.154","DIGA","2","m","rechts","58","","","object","f","0","true"
"null","<div style=""font-size:60px;"">+</div>","null","html-keyboard-response","316","431081","0.0-6.0-0.155","DIGA","2","m","rechts","58","","fixation","","","",""
"1827","img/150_120.png","70","image-keyboard-response","317","432908","0.0-6.0-1.155","DIGA","2","m","rechts","58","","","object","f","150","true"
"null","<div style=""font-size:60px;"">+</div>","null","html-keyboard-response","318","433211","0.0-6.0-0.156","DIGA","2","m","rechts","58","","fixation","","","",""
"2186","img/60_90.png","74","image-keyboard-response","319","435399","0.0-6.0-1.156","DIGA","2","m","rechts","58","","","object","j","60","true"
"null","<div style=""font-size:60px;"">+</div>","null","html-keyboard-response","320","435904","0.0-6.0-0.157","DIGA","2","m","rechts","58","","fixation","","","",""
"1440","img/30_90.png","74","image-keyboard-response","321","437344","0.0-6.0-1.157","DIGA","2","m","rechts","58","","","object","j","30","true"
"null","<div style=""font-size:60px;"">+</div>","null","html-keyboard-response","322","437849","0.0-6.0-0.158","DIGA","2","m","rechts","58","","fixation","","","",""
"1579","img/0_210.png","70","image-keyboard-response","323","439429","0.0-6.0-1.158","DIGA","2","m","rechts","58","","","object","f","0","true"
"null","<div style=""font-size:60px;"">+</div>","null","html-keyboard-response","324","439782","0.0-6.0-0.159","DIGA","2","m","rechts","58","","fixation","","","",""
"2339","img/120_30.png","70","image-keyboard-response","325","442121","0.0-6.0-1.159","DIGA","2","m","rechts","58","","","object","f","120","true"
"null","<div style=""font-size:60px;"">+</div>","null","html-keyboard-response","326","442475","0.0-6.0-0.160","DIGA","2","m","rechts","58","","fixation","","","",""
"1517","img/L30_180.png","74","image-keyboard-response","327","443994","0.0-6.0-1.160","DIGA","2","m","rechts","58","","","object","j","30","true"
"null","<div style=""font-size:60px;"">+</div>","null","html-keyboard-response","328","444297","0.0-6.0-0.161","DIGA","2","m","rechts","58","","fixation","","","",""
"1930","img/120_330.png","74","image-keyboard-response","329","446227","0.0-6.0-1.161","DIGA","2","m","rechts","58","","","object","j","120","true"
"null","<div style=""font-size:60px;"">+</div>","null","html-keyboard-response","330","446682","0.0-6.0-0.162","DIGA","2","m","rechts","58","","fixation","","","",""
"1533","img/0_270.png","70","image-keyboard-response","331","448215","0.0-6.0-1.162","DIGA","2","m","rechts","58","","","object","f","0","true"
"null","<div style=""font-size:60px;"">+</div>","null","html-keyboard-response","332","448567","0.0-6.0-0.163","DIGA","2","m","rechts","58","","fixation","","","",""
"2112","img/150_90.png","70","image-keyboard-response","333","450681","0.0-6.0-1.163","DIGA","2","m","rechts","58","","","object","f","150","true"
"null","<div style=""font-size:60px;"">+</div>","null","html-keyboard-response","334","451037","0.0-6.0-0.164","DIGA","2","m","rechts","58","","fixation","","","",""
"1798","img/0_330.png","70","image-keyboard-response","335","452835","0.0-6.0-1.164","DIGA","2","m","rechts","58","","","object","f","0","true"
"null","<div style=""font-size:60px;"">+</div>","null","html-keyboard-response","336","453140","0.0-6.0-0.165","DIGA","2","m","rechts","58","","fixation","","","",""
"1890","img/60_270.png","70","image-keyboard-response","337","455031","0.0-6.0-1.165","DIGA","2","m","rechts","58","","","object","f","60","true"
"null","<div style=""font-size:60px;"">+</div>","null","html-keyboard-response","338","455536","0.0-6.0-0.166","DIGA","2","m","rechts","58","","fixation","","","",""
"1939","img/90_180.png","70","image-keyboard-response","339","457476","0.0-6.0-1.166","DIGA","2","m","rechts","58","","","object","f","90","true"
"null","<div style=""font-size:60px;"">+</div>","null","html-keyboard-response","340","457827","0.0-6.0-0.167","DIGA","2","m","rechts","58","","fixation","","","",""
"1674","img/90_240.png","70","image-keyboard-response","341","459502","0.0-6.0-1.167","DIGA","2","m","rechts","58","","","object","f","90","true"
"null","<div style=""font-size:60px;"">+</div>","null","html-keyboard-response","342","459957","0.0-6.0-0.168","DIGA","2","m","rechts","58","","fixation","","","",""
"1547","img/60_150.png","74","image-keyboard-response","343","461506","0.0-6.0-1.168","DIGA","2","m","rechts","58","","","object","j","60","true"
"null","<div style=""font-size:60px;"">+</div>","null","html-keyboard-response","344","461911","0.0-6.0-0.169","DIGA","2","m","rechts","58","","fixation","","","",""
"1289","img/0_240.png","70","image-keyboard-response","345","463202","0.0-6.0-1.169","DIGA","2","m","rechts","58","","","object","f","0","true"
"null","<div style=""font-size:60px;"">+</div>","null","html-keyboard-response","346","463608","0.0-6.0-0.170","DIGA","2","m","rechts","58","","fixation","","","",""
"1618","img/L60_180.png","74","image-keyboard-response","347","465226","0.0-6.0-1.170","DIGA","2","m","rechts","58","","","object","j","60","true"
"null","<div style=""font-size:60px;"">+</div>","null","html-keyboard-response","348","465528","0.0-6.0-0.171","DIGA","2","m","rechts","58","","fixation","","","",""
"1660","img/30_180.png","70","image-keyboard-response","349","467189","0.0-6.0-1.171","DIGA","2","m","rechts","58","","","object","f","30","true"
"null","<div style=""font-size:60px;"">+</div>","null","html-keyboard-response","350","467643","0.0-6.0-0.172","DIGA","2","m","rechts","58","","fixation","","","",""
"2148","img/L150_180.png","74","image-keyboard-response","351","469791","0.0-6.0-1.172","DIGA","2","m","rechts","58","","","object","j","150","true"
"null","<div style=""font-size:60px;"">+</div>","null","html-keyboard-response","352","470244","0.0-6.0-0.173","DIGA","2","m","rechts","58","","fixation","","","",""
"1655","img/30_300.png","70","image-keyboard-response","353","471899","0.0-6.0-1.173","DIGA","2","m","rechts","58","","","object","f","30","true"
"null","<div style=""font-size:60px;"">+</div>","null","html-keyboard-response","354","472250","0.0-6.0-0.174","DIGA","2","m","rechts","58","","fixation","","","",""
"1625","img/60_180.png","70","image-keyboard-response","355","473878","0.0-6.0-1.174","DIGA","2","m","rechts","58","","","object","f","60","true"
"null","<div style=""font-size:60px;"">+</div>","null","html-keyboard-response","356","474282","0.0-6.0-0.175","DIGA","2","m","rechts","58","","fixation","","","",""
"2172","img/30_120.png","74","image-keyboard-response","357","476454","0.0-6.0-1.175","DIGA","2","m","rechts","58","","","object","j","30","true"
"null","<div style=""font-size:60px;"">+</div>","null","html-keyboard-response","358","476755","0.0-6.0-0.176","DIGA","2","m","rechts","58","","fixation","","","",""
"1105","img/0_120.png","74","image-keyboard-response","359","477861","0.0-6.0-1.176","DIGA","2","m","rechts","58","","","object","j","0","true"
"null","<div style=""font-size:60px;"">+</div>","null","html-keyboard-response","360","478316","0.0-6.0-0.177","DIGA","2","m","rechts","58","","fixation","","","",""
"810","img/0_90.png","74","image-keyboard-response","361","479127","0.0-6.0-1.177","DIGA","2","m","rechts","58","","","object","j","0","true"
"null","<div style=""font-size:60px;"">+</div>","null","html-keyboard-response","362","479430","0.0-6.0-0.178","DIGA","2","m","rechts","58","","fixation","","","",""
"1670","img/120_150.png","70","image-keyboard-response","363","481101","0.0-6.0-1.178","DIGA","2","m","rechts","58","","","object","j","120","false"
"null","<div style=""font-size:60px;"">+</div>","null","html-keyboard-response","364","481404","0.0-6.0-0.179","DIGA","2","m","rechts","58","","fixation","","","",""
"1487","img/150_270.png","74","image-keyboard-response","365","482891","0.0-6.0-1.179","DIGA","2","m","rechts","58","","","object","j","150","true"
"null","<div style=""font-size:60px;"">+</div>","null","html-keyboard-response","366","483297","0.0-6.0-0.180","DIGA","2","m","rechts","58","","fixation","","","",""
"2915","img/120_210.png","70","image-keyboard-response","367","486213","0.0-6.0-1.180","DIGA","2","m","rechts","58","","","object","f","120","true"
"null","<div style=""font-size:60px;"">+</div>","null","html-keyboard-response","368","486616","0.0-6.0-0.181","DIGA","2","m","rechts","58","","fixation","","","",""
"2256","img/150_120.png","70","image-keyboard-response","369","488874","0.0-6.0-1.181","DIGA","2","m","rechts","58","","","object","f","150","true"
"null","<div style=""font-size:60px;"">+</div>","null","html-keyboard-response","370","489228","0.0-6.0-0.182","DIGA","2","m","rechts","58","","fixation","","","",""
"1755","img/60_30.png","70","image-keyboard-response","371","490983","0.0-6.0-1.182","DIGA","2","m","rechts","58","","","object","f","60","true"
"null","<div style=""font-size:60px;"">+</div>","null","html-keyboard-response","372","491288","0.0-6.0-0.183","DIGA","2","m","rechts","58","","fixation","","","",""
"2352","img/120_270.png","74","image-keyboard-response","373","493641","0.0-6.0-1.183","DIGA","2","m","rechts","58","","","object","j","120","true"
"null","<div style=""font-size:60px;"">+</div>","null","html-keyboard-response","374","493993","0.0-6.0-0.184","DIGA","2","m","rechts","58","","fixation","","","",""
"1296","img/0_150.png","74","image-keyboard-response","375","495289","0.0-6.0-1.184","DIGA","2","m","rechts","58","","","object","j","0","true"
"null","<div style=""font-size:60px;"">+</div>","null","html-keyboard-response","376","495694","0.0-6.0-0.185","DIGA","2","m","rechts","58","","fixation","","","",""
"2455","img/30_60.png","74","image-keyboard-response","377","498149","0.0-6.0-1.185","DIGA","2","m","rechts","58","","","object","j","30","true"
"null","<div style=""font-size:60px;"">+</div>","null","html-keyboard-response","378","498504","0.0-6.0-0.186","DIGA","2","m","rechts","58","","fixation","","","",""
"2326","img/150_300.png","70","image-keyboard-response","379","500830","0.0-6.0-1.186","DIGA","2","m","rechts","58","","","object","j","150","false"
"null","<div style=""font-size:60px;"">+</div>","null","html-keyboard-response","380","501132","0.0-6.0-0.187","DIGA","2","m","rechts","58","","fixation","","","",""
"1612","img/0_60.png","74","image-keyboard-response","381","502745","0.0-6.0-1.187","DIGA","2","m","rechts","58","","","object","j","0","true"
"null","<div style=""font-size:60px;"">+</div>","null","html-keyboard-response","382","503100","0.0-6.0-0.188","DIGA","2","m","rechts","58","","fixation","","","",""
"1517","img/0_30.png","74","image-keyboard-response","383","504618","0.0-6.0-1.188","DIGA","2","m","rechts","58","","","object","j","0","true"
"null","<div style=""font-size:60px;"">+</div>","null","html-keyboard-response","384","504921","0.0-6.0-0.189","DIGA","2","m","rechts","58","","fixation","","","",""
"2693","img/120_90.png","70","image-keyboard-response","385","507614","0.0-6.0-1.189","DIGA","2","m","rechts","58","","","object","f","120","true"
"null","<div style=""font-size:60px;"">+</div>","null","html-keyboard-response","386","507918","0.0-6.0-0.190","DIGA","2","m","rechts","58","","fixation","","","",""
"1772","img/30_270.png","70","image-keyboard-response","387","509691","0.0-6.0-1.190","DIGA","2","m","rechts","58","","","object","f","30","true"
"null","<div style=""font-size:60px;"">+</div>","null","html-keyboard-response","388","510043","0.0-6.0-0.191","DIGA","2","m","rechts","58","","fixation","","","",""
"1798","img/L120_180.png","74","image-keyboard-response","389","511841","0.0-6.0-1.191","DIGA","2","m","rechts","58","","","object","j","120","true"
"null","<div style=""font-size:60px;"">+</div>","null","html-keyboard-response","390","512146","0.0-6.0-0.192","DIGA","2","m","rechts","58","","fixation","","","",""
"1934","img/90_60.png","70","image-keyboard-response","391","514083","0.0-6.0-1.192","DIGA","2","m","rechts","58","","","object","f","90","true"
"null","<div style=""font-size:60px;"">+</div>","null","html-keyboard-response","392","514439","0.0-6.0-0.193","DIGA","2","m","rechts","58","","fixation","","","",""
"1538","img/90_300.png","74","image-keyboard-response","393","515978","0.0-6.0-1.193","DIGA","2","m","rechts","58","","","object","j","90","true"
"null","<div style=""font-size:60px;"">+</div>","null","html-keyboard-response","394","516279","0.0-6.0-0.194","DIGA","2","m","rechts","58","","fixation","","","",""
"2312","img/90_120.png","74","image-keyboard-response","395","518592","0.0-6.0-1.194","DIGA","2","m","rechts","58","","","object","j","90","true"
"null","<div style=""font-size:60px;"">+</div>","null","html-keyboard-response","396","519098","0.0-6.0-0.195","DIGA","2","m","rechts","58","","fixation","","","",""
"1505","img/30_240.png","70","image-keyboard-response","397","520604","0.0-6.0-1.195","DIGA","2","m","rechts","58","","","object","f","30","true"
"null","<div style=""font-size:60px;"">+</div>","null","html-keyboard-response","398","521005","0.0-6.0-0.196","DIGA","2","m","rechts","58","","fixation","","","",""
"1496","img/60_330.png","74","image-keyboard-response","399","522503","0.0-6.0-1.196","DIGA","2","m","rechts","58","","","object","j","60","true"
"null","<div style=""font-size:60px;"">+</div>","null","html-keyboard-response","400","523009","0.0-6.0-0.197","DIGA","2","m","rechts","58","","fixation","","","",""
"1650","img/90_30.png","70","image-keyboard-response","401","524659","0.0-6.0-1.197","DIGA","2","m","rechts","58","","","object","f","90","true"
"null","<div style=""font-size:60px;"">+</div>","null","html-keyboard-response","402","525011","0.0-6.0-0.198","DIGA","2","m","rechts","58","","fixation","","","",""
"1651","img/150_60.png","70","image-keyboard-response","403","526662","0.0-6.0-1.198","DIGA","2","m","rechts","58","","","object","f","150","true"
"null","<div style=""font-size:60px;"">+</div>","null","html-keyboard-response","404","526967","0.0-6.0-0.199","DIGA","2","m","rechts","58","","fixation","","","",""
"1806","img/120_180.png","74","image-keyboard-response","405","528774","0.0-6.0-1.199","DIGA","2","m","rechts","58","","","object","f","120","false"
"null","<div style=""font-size:60px;"">+</div>","null","html-keyboard-response","406","529225","0.0-6.0-0.200","DIGA","2","m","rechts","58","","fixation","","","",""
"1785","img/90_210.png","74","image-keyboard-response","407","531011","0.0-6.0-1.200","DIGA","2","m","rechts","58","","","object","f","90","false"
"null","<div style=""font-size:60px;"">+</div>","null","html-keyboard-response","408","531512","0.0-6.0-0.201","DIGA","2","m","rechts","58","","fixation","","","",""
"2513","img/90_150.png","74","image-keyboard-response","409","534026","0.0-6.0-1.201","DIGA","2","m","rechts","58","","","object","j","90","true"
"null","<div style=""font-size:60px;"">+</div>","null","html-keyboard-response","410","534380","0.0-6.0-0.202","DIGA","2","m","rechts","58","","fixation","","","",""
"1711","img/150_240.png","74","image-keyboard-response","411","536091","0.0-6.0-1.202","DIGA","2","m","rechts","58","","","object","j","150","true"
"null","<div style=""font-size:60px;"">+</div>","null","html-keyboard-response","412","536445","0.0-6.0-0.203","DIGA","2","m","rechts","58","","fixation","","","",""
"2295","img/150_180.png","74","image-keyboard-response","413","538741","0.0-6.0-1.203","DIGA","2","m","rechts","58","","","object","f","150","false"
"null","<div style=""font-size:60px;"">+</div>","null","html-keyboard-response","414","539197","0.0-6.0-0.204","DIGA","2","m","rechts","58","","fixation","","","",""
"2075","img/L90_180.png","74","image-keyboard-response","415","541273","0.0-6.0-1.204","DIGA","2","m","rechts","58","","","object","j","90","true"
"null","<div style=""font-size:60px;"">+</div>","null","html-keyboard-response","416","541780","0.0-6.0-0.205","DIGA","2","m","rechts","58","","fixation","","","",""
"1549","img/0_300.png","70","image-keyboard-response","417","543329","0.0-6.0-1.205","DIGA","2","m","rechts","58","","","object","f","0","true"
"null","<div style=""font-size:60px;"">+</div>","null","html-keyboard-response","418","543631","0.0-6.0-0.206","DIGA","2","m","rechts","58","","fixation","","","",""
"1453","img/90_330.png","74","image-keyboard-response","419","545086","0.0-6.0-1.206","DIGA","2","m","rechts","58","","","object","j","90","true"
"null","<div style=""font-size:60px;"">+</div>","null","html-keyboard-response","420","545491","0.0-6.0-0.207","DIGA","2","m","rechts","58","","fixation","","","",""
"1771","img/60_210.png","70","image-keyboard-response","421","547264","0.0-6.0-1.207","DIGA","2","m","rechts","58","","","object","f","60","true"
"14563","<p>Du hast in 89% der Versuche korrekt entschieden.</p><p>Deine durchschnittliche Reaktionszeit war  1864ms.</p><p>Dr&uuml;cke eine beliebige Taste, um die Session zu beenden. Vielen Dank!</p>","72","html-keyboard-response","422","561830","0.0-7.0","DIGA","2","m","rechts","58","","","","","",""
