"rt","stimulus","key_press","trial_type","trial_index","time_elapsed","internal_node_id","subject","session","sex","handedness","age","responses","test_part","condition","correct_response","angle","correct"
"3399","<p>Mental Rotation Experiment.</p> <p>Dr&uuml;cke eine beliebige Taste, um anzufangen.</p>","68","html-keyboard-response","0","3403","0.0-0.0","DIGA","1","m","rechts","58","","","","","",""
"2794","","","survey-text","1","6200","0.0-1.0","DIGA","1","m","rechts","58","{""Q0"":""DIGA""}","","","","",""
"2134","","","survey-text","2","8335","0.0-2.0","DIGA","1","m","rechts","58","{""Q0"":""1""}","","","","",""
"3090","","","survey-multi-choice","3","11428","0.0-3.0","DIGA","1","m","rechts","58","{""Q0"":""m"",""Q1"":""rechts""}","","","","",""
"3520","","","survey-text","4","14948","0.0-4.0","DIGA","1","m","rechts","58","{""Q0"":""58""}","","","","",""
"16674","<p>Stell dir vor, dass du vor einem runden Tisch stehst, auf dem sich ein blauer Ball am Tischrand befindet. Entlang des Tischrands ist jeweils ein verschieden langer Pfeil. Nun bleibst du an deinem Platz vor dem Tisch und rotierst den Tisch entlang des Pfeils (gleiche Richtung und Länge). </p> <img src='img/30_180.png'></img> <br><p> Nachdem du diese (vorgestellte) Rotation durchgef&uuml;hrt hast, schau in Richtung der Tischmitte, und entscheide dann, ob der Ball links oder rechts von dir liegt.</p> <p>Dr&uuml;cke die <strong>'f'</strong>-Taste f&uuml;r links, die <strong>'j'</strong>-Taste f&uuml;r rechts.</p><br><p> Das Bild wird jeweils 1 Sekunde lang pr&auml;sentiert. Du hast 3 Sekunden Zeit eine Entscheidung zu treffen.</p>","70","html-keyboard-response","5","31623","0.0-5.0","DIGA","1","m","rechts","58","","","","","",""
"null","<div style=""font-size:60px;"">+</div>","null","html-keyboard-response","6","32982","0.0-6.0-0.0","DIGA","1","m","rechts","58","","fixation","","","",""
"null","img/30_300.png","null","image-keyboard-response","7","35989","0.0-6.0-1.0","DIGA","1","m","rechts","58","","","object","f","30","false"
"null","<div style=""font-size:60px;"">+</div>","null","html-keyboard-response","8","36445","0.0-6.0-0.1","DIGA","1","m","rechts","58","","fixation","","","",""
"2354","img/90_60.png","74","image-keyboard-response","9","38800","0.0-6.0-1.1","DIGA","1","m","rechts","58","","","object","f","90","false"
"null","<div style=""font-size:60px;"">+</div>","null","html-keyboard-response","10","39251","0.0-6.0-0.2","DIGA","1","m","rechts","58","","fixation","","","",""
"1164","img/90_180.png","70","image-keyboard-response","11","40416","0.0-6.0-1.2","DIGA","1","m","rechts","58","","","object","f","90","true"
"null","<div style=""font-size:60px;"">+</div>","null","html-keyboard-response","12","40720","0.0-6.0-0.3","DIGA","1","m","rechts","58","","fixation","","","",""
"1756","img/0_330.png","70","image-keyboard-response","13","42476","0.0-6.0-1.3","DIGA","1","m","rechts","58","","","object","f","0","true"
"null","<div style=""font-size:60px;"">+</div>","null","html-keyboard-response","14","42832","0.0-6.0-0.4","DIGA","1","m","rechts","58","","fixation","","","",""
"1645","img/120_330.png","70","image-keyboard-response","15","44478","0.0-6.0-1.4","DIGA","1","m","rechts","58","","","object","j","120","false"
"null","<div style=""font-size:60px;"">+</div>","null","html-keyboard-response","16","44781","0.0-6.0-0.5","DIGA","1","m","rechts","58","","fixation","","","",""
"2208","img/120_30.png","74","image-keyboard-response","17","46989","0.0-6.0-1.5","DIGA","1","m","rechts","58","","","object","f","120","false"
"null","<div style=""font-size:60px;"">+</div>","null","html-keyboard-response","18","47395","0.0-6.0-0.6","DIGA","1","m","rechts","58","","fixation","","","",""
"1737","img/0_270.png","70","image-keyboard-response","19","49132","0.0-6.0-1.6","DIGA","1","m","rechts","58","","","object","f","0","true"
"null","<div style=""font-size:60px;"">+</div>","null","html-keyboard-response","20","49488","0.0-6.0-0.7","DIGA","1","m","rechts","58","","fixation","","","",""
"1781","img/90_240.png","70","image-keyboard-response","21","51270","0.0-6.0-1.7","DIGA","1","m","rechts","58","","","object","f","90","true"
"null","<div style=""font-size:60px;"">+</div>","null","html-keyboard-response","22","51671","0.0-6.0-0.8","DIGA","1","m","rechts","58","","fixation","","","",""
"2240","img/60_270.png","74","image-keyboard-response","23","53912","0.0-6.0-1.8","DIGA","1","m","rechts","58","","","object","f","60","false"
"null","<div style=""font-size:60px;"">+</div>","null","html-keyboard-response","24","54318","0.0-6.0-0.9","DIGA","1","m","rechts","58","","fixation","","","",""
"2174","img/90_30.png","70","image-keyboard-response","25","56492","0.0-6.0-1.9","DIGA","1","m","rechts","58","","","object","f","90","true"
"null","<div style=""font-size:60px;"">+</div>","null","html-keyboard-response","26","56843","0.0-6.0-0.10","DIGA","1","m","rechts","58","","fixation","","","",""
"1671","img/L120_180.png","74","image-keyboard-response","27","58516","0.0-6.0-1.10","DIGA","1","m","rechts","58","","","object","j","120","true"
"null","<div style=""font-size:60px;"">+</div>","null","html-keyboard-response","28","58820","0.0-6.0-0.11","DIGA","1","m","rechts","58","","fixation","","","",""
"2313","img/150_300.png","70","image-keyboard-response","29","61134","0.0-6.0-1.11","DIGA","1","m","rechts","58","","","object","j","150","false"
"null","<div style=""font-size:60px;"">+</div>","null","html-keyboard-response","30","61540","0.0-6.0-0.12","DIGA","1","m","rechts","58","","fixation","","","",""
"2618","img/L60_180.png","74","image-keyboard-response","31","64158","0.0-6.0-1.12","DIGA","1","m","rechts","58","","","object","j","60","true"
"null","<div style=""font-size:60px;"">+</div>","null","html-keyboard-response","32","64458","0.0-6.0-0.13","DIGA","1","m","rechts","58","","fixation","","","",""
"1864","img/120_180.png","70","image-keyboard-response","33","66324","0.0-6.0-1.13","DIGA","1","m","rechts","58","","","object","f","120","true"
"null","<div style=""font-size:60px;"">+</div>","null","html-keyboard-response","34","66729","0.0-6.0-0.14","DIGA","1","m","rechts","58","","fixation","","","",""
"1868","img/60_180.png","70","image-keyboard-response","35","68597","0.0-6.0-1.14","DIGA","1","m","rechts","58","","","object","f","60","true"
"null","<div style=""font-size:60px;"">+</div>","null","html-keyboard-response","36","69103","0.0-6.0-0.15","DIGA","1","m","rechts","58","","fixation","","","",""
"1654","img/150_120.png","74","image-keyboard-response","37","70758","0.0-6.0-1.15","DIGA","1","m","rechts","58","","","object","f","150","false"
"null","<div style=""font-size:60px;"">+</div>","null","html-keyboard-response","38","71261","0.0-6.0-0.16","DIGA","1","m","rechts","58","","fixation","","","",""
"2353","img/90_330.png","70","image-keyboard-response","39","73614","0.0-6.0-1.16","DIGA","1","m","rechts","58","","","object","j","90","false"
"null","<div style=""font-size:60px;"">+</div>","null","html-keyboard-response","40","74117","0.0-6.0-0.17","DIGA","1","m","rechts","58","","fixation","","","",""
"2379","img/120_90.png","70","image-keyboard-response","41","76497","0.0-6.0-1.17","DIGA","1","m","rechts","58","","","object","f","120","true"
"null","<div style=""font-size:60px;"">+</div>","null","html-keyboard-response","42","76799","0.0-6.0-0.18","DIGA","1","m","rechts","58","","fixation","","","",""
"2637","img/30_240.png","70","image-keyboard-response","43","79436","0.0-6.0-1.18","DIGA","1","m","rechts","58","","","object","f","30","true"
"null","<div style=""font-size:60px;"">+</div>","null","html-keyboard-response","44","79839","0.0-6.0-0.19","DIGA","1","m","rechts","58","","fixation","","","",""
"1748","img/60_330.png","74","image-keyboard-response","45","81588","0.0-6.0-1.19","DIGA","1","m","rechts","58","","","object","j","60","true"
"null","<div style=""font-size:60px;"">+</div>","null","html-keyboard-response","46","81894","0.0-6.0-0.20","DIGA","1","m","rechts","58","","fixation","","","",""
"2290","img/150_180.png","70","image-keyboard-response","47","84184","0.0-6.0-1.20","DIGA","1","m","rechts","58","","","object","f","150","true"
"null","<div style=""font-size:60px;"">+</div>","null","html-keyboard-response","48","84489","0.0-6.0-0.21","DIGA","1","m","rechts","58","","fixation","","","",""
"1786","img/0_240.png","70","image-keyboard-response","49","86276","0.0-6.0-1.21","DIGA","1","m","rechts","58","","","object","f","0","true"
"null","<div style=""font-size:60px;"">+</div>","null","html-keyboard-response","50","86732","0.0-6.0-0.22","DIGA","1","m","rechts","58","","fixation","","","",""
"2205","img/60_30.png","70","image-keyboard-response","51","88938","0.0-6.0-1.22","DIGA","1","m","rechts","58","","","object","f","60","true"
"null","<div style=""font-size:60px;"">+</div>","null","html-keyboard-response","52","89240","0.0-6.0-0.23","DIGA","1","m","rechts","58","","fixation","","","",""
"1927","img/L30_180.png","74","image-keyboard-response","53","91168","0.0-6.0-1.23","DIGA","1","m","rechts","58","","","object","j","30","true"
"null","<div style=""font-size:60px;"">+</div>","null","html-keyboard-response","54","91570","0.0-6.0-0.24","DIGA","1","m","rechts","58","","fixation","","","",""
"1908","img/L150_180.png","74","image-keyboard-response","55","93479","0.0-6.0-1.24","DIGA","1","m","rechts","58","","","object","j","150","true"
"null","<div style=""font-size:60px;"">+</div>","null","html-keyboard-response","56","93934","0.0-6.0-0.25","DIGA","1","m","rechts","58","","fixation","","","",""
"1913","img/90_120.png","74","image-keyboard-response","57","95848","0.0-6.0-1.25","DIGA","1","m","rechts","58","","","object","j","90","true"
"null","<div style=""font-size:60px;"">+</div>","null","html-keyboard-response","58","96353","0.0-6.0-0.26","DIGA","1","m","rechts","58","","fixation","","","",""
"1777","img/60_210.png","70","image-keyboard-response","59","98130","0.0-6.0-1.26","DIGA","1","m","rechts","58","","","object","f","60","true"
"null","<div style=""font-size:60px;"">+</div>","null","html-keyboard-response","60","98483","0.0-6.0-0.27","DIGA","1","m","rechts","58","","fixation","","","",""
"1977","img/90_150.png","74","image-keyboard-response","61","100461","0.0-6.0-1.27","DIGA","1","m","rechts","58","","","object","j","90","true"
"null","<div style=""font-size:60px;"">+</div>","null","html-keyboard-response","62","100864","0.0-6.0-0.28","DIGA","1","m","rechts","58","","fixation","","","",""
"1903","img/0_30.png","74","image-keyboard-response","63","102768","0.0-6.0-1.28","DIGA","1","m","rechts","58","","","object","j","0","true"
"null","<div style=""font-size:60px;"">+</div>","null","html-keyboard-response","64","103173","0.0-6.0-0.29","DIGA","1","m","rechts","58","","fixation","","","",""
"1842","img/150_60.png","70","image-keyboard-response","65","105016","0.0-6.0-1.29","DIGA","1","m","rechts","58","","","object","f","150","true"
"null","<div style=""font-size:60px;"">+</div>","null","html-keyboard-response","66","105418","0.0-6.0-0.30","DIGA","1","m","rechts","58","","fixation","","","",""
"1611","img/0_150.png","74","image-keyboard-response","67","107029","0.0-6.0-1.30","DIGA","1","m","rechts","58","","","object","j","0","true"
"null","<div style=""font-size:60px;"">+</div>","null","html-keyboard-response","68","107334","0.0-6.0-0.31","DIGA","1","m","rechts","58","","fixation","","","",""
"1914","img/120_150.png","70","image-keyboard-response","69","109254","0.0-6.0-1.31","DIGA","1","m","rechts","58","","","object","j","120","false"
"null","<div style=""font-size:60px;"">+</div>","null","html-keyboard-response","70","109556","0.0-6.0-0.32","DIGA","1","m","rechts","58","","fixation","","","",""
"null","img/90_210.png","null","image-keyboard-response","71","112558","0.0-6.0-1.32","DIGA","1","m","rechts","58","","","object","f","90","false"
"null","<div style=""font-size:60px;"">+</div>","null","html-keyboard-response","72","113063","0.0-6.0-0.33","DIGA","1","m","rechts","58","","fixation","","","",""
"64","img/120_270.png","70","image-keyboard-response","73","113127","0.0-6.0-1.33","DIGA","1","m","rechts","58","","","object","j","120","false"
"null","<div style=""font-size:60px;"">+</div>","null","html-keyboard-response","74","113484","0.0-6.0-0.34","DIGA","1","m","rechts","58","","fixation","","","",""
"1671","img/0_210.png","70","image-keyboard-response","75","115155","0.0-6.0-1.34","DIGA","1","m","rechts","58","","","object","f","0","true"
"null","<div style=""font-size:60px;"">+</div>","null","html-keyboard-response","76","115561","0.0-6.0-0.35","DIGA","1","m","rechts","58","","fixation","","","",""
"1872","img/30_90.png","74","image-keyboard-response","77","117433","0.0-6.0-1.35","DIGA","1","m","rechts","58","","","object","j","30","true"
"null","<div style=""font-size:60px;"">+</div>","null","html-keyboard-response","78","117938","0.0-6.0-0.36","DIGA","1","m","rechts","58","","fixation","","","",""
"1882","img/0_90.png","74","image-keyboard-response","79","119820","0.0-6.0-1.36","DIGA","1","m","rechts","58","","","object","j","0","true"
"null","<div style=""font-size:60px;"">+</div>","null","html-keyboard-response","80","120225","0.0-6.0-0.37","DIGA","1","m","rechts","58","","fixation","","","",""
"1972","img/150_270.png","70","image-keyboard-response","81","122198","0.0-6.0-1.37","DIGA","1","m","rechts","58","","","object","j","150","false"
"null","<div style=""font-size:60px;"">+</div>","null","html-keyboard-response","82","122553","0.0-6.0-0.38","DIGA","1","m","rechts","58","","fixation","","","",""
"null","img/150_240.png","null","image-keyboard-response","83","125555","0.0-6.0-1.38","DIGA","1","m","rechts","58","","","object","j","150","false"
"null","<div style=""font-size:60px;"">+</div>","null","html-keyboard-response","84","125909","0.0-6.0-0.39","DIGA","1","m","rechts","58","","fixation","","","",""
"2160","img/60_90.png","74","image-keyboard-response","85","128070","0.0-6.0-1.39","DIGA","1","m","rechts","58","","","object","j","60","true"
"null","<div style=""font-size:60px;"">+</div>","null","html-keyboard-response","86","128473","0.0-6.0-0.40","DIGA","1","m","rechts","58","","fixation","","","",""
"1706","img/0_120.png","74","image-keyboard-response","87","130180","0.0-6.0-1.40","DIGA","1","m","rechts","58","","","object","j","0","true"
"null","<div style=""font-size:60px;"">+</div>","null","html-keyboard-response","88","130482","0.0-6.0-0.41","DIGA","1","m","rechts","58","","fixation","","","",""
"1629","img/30_180.png","70","image-keyboard-response","89","132112","0.0-6.0-1.41","DIGA","1","m","rechts","58","","","object","f","30","true"
"null","<div style=""font-size:60px;"">+</div>","null","html-keyboard-response","90","132468","0.0-6.0-0.42","DIGA","1","m","rechts","58","","fixation","","","",""
"1657","img/60_150.png","74","image-keyboard-response","91","134127","0.0-6.0-1.42","DIGA","1","m","rechts","58","","","object","j","60","true"
"null","<div style=""font-size:60px;"">+</div>","null","html-keyboard-response","92","134632","0.0-6.0-0.43","DIGA","1","m","rechts","58","","fixation","","","",""
"2099","img/30_60.png","74","image-keyboard-response","93","136731","0.0-6.0-1.43","DIGA","1","m","rechts","58","","","object","j","30","true"
"null","<div style=""font-size:60px;"">+</div>","null","html-keyboard-response","94","137186","0.0-6.0-0.44","DIGA","1","m","rechts","58","","fixation","","","",""
"2325","img/30_270.png","70","image-keyboard-response","95","139511","0.0-6.0-1.44","DIGA","1","m","rechts","58","","","object","f","30","true"
"null","<div style=""font-size:60px;"">+</div>","null","html-keyboard-response","96","139815","0.0-6.0-0.45","DIGA","1","m","rechts","58","","fixation","","","",""
"1508","img/30_120.png","74","image-keyboard-response","97","141324","0.0-6.0-1.45","DIGA","1","m","rechts","58","","","object","j","30","true"
"null","<div style=""font-size:60px;"">+</div>","null","html-keyboard-response","98","141725","0.0-6.0-0.46","DIGA","1","m","rechts","58","","fixation","","","",""
"1921","img/150_90.png","70","image-keyboard-response","99","143646","0.0-6.0-1.46","DIGA","1","m","rechts","58","","","object","f","150","true"
"null","<div style=""font-size:60px;"">+</div>","null","html-keyboard-response","100","143948","0.0-6.0-0.47","DIGA","1","m","rechts","58","","fixation","","","",""
"1887","img/90_300.png","74","image-keyboard-response","101","145836","0.0-6.0-1.47","DIGA","1","m","rechts","58","","","object","j","90","true"
"null","<div style=""font-size:60px;"">+</div>","null","html-keyboard-response","102","146339","0.0-6.0-0.48","DIGA","1","m","rechts","58","","fixation","","","",""
"1770","img/0_300.png","70","image-keyboard-response","103","148110","0.0-6.0-1.48","DIGA","1","m","rechts","58","","","object","f","0","true"
"null","<div style=""font-size:60px;"">+</div>","null","html-keyboard-response","104","148614","0.0-6.0-0.49","DIGA","1","m","rechts","58","","fixation","","","",""
"2079","img/L90_180.png","74","image-keyboard-response","105","150694","0.0-6.0-1.49","DIGA","1","m","rechts","58","","","object","j","90","true"
"null","<div style=""font-size:60px;"">+</div>","null","html-keyboard-response","106","151046","0.0-6.0-0.50","DIGA","1","m","rechts","58","","fixation","","","",""
"1925","img/0_60.png","74","image-keyboard-response","107","152972","0.0-6.0-1.50","DIGA","1","m","rechts","58","","","object","j","0","true"
"null","<div style=""font-size:60px;"">+</div>","null","html-keyboard-response","108","153326","0.0-6.0-0.51","DIGA","1","m","rechts","58","","fixation","","","",""
"2273","img/120_210.png","70","image-keyboard-response","109","155601","0.0-6.0-1.51","DIGA","1","m","rechts","58","","","object","f","120","true"
"null","<div style=""font-size:60px;"">+</div>","null","html-keyboard-response","110","156003","0.0-6.0-0.52","DIGA","1","m","rechts","58","","fixation","","","",""
"1876","img/90_330.png","74","image-keyboard-response","111","157880","0.0-6.0-1.52","DIGA","1","m","rechts","58","","","object","j","90","true"
"null","<div style=""font-size:60px;"">+</div>","null","html-keyboard-response","112","158235","0.0-6.0-0.53","DIGA","1","m","rechts","58","","fixation","","","",""
"2063","img/30_180.png","70","image-keyboard-response","113","160299","0.0-6.0-1.53","DIGA","1","m","rechts","58","","","object","f","30","true"
"null","<div style=""font-size:60px;"">+</div>","null","html-keyboard-response","114","160655","0.0-6.0-0.54","DIGA","1","m","rechts","58","","fixation","","","",""
"2344","img/90_30.png","70","image-keyboard-response","115","162999","0.0-6.0-1.54","DIGA","1","m","rechts","58","","","object","f","90","true"
"null","<div style=""font-size:60px;"">+</div>","null","html-keyboard-response","116","163505","0.0-6.0-0.55","DIGA","1","m","rechts","58","","fixation","","","",""
"1744","img/0_150.png","74","image-keyboard-response","117","165249","0.0-6.0-1.55","DIGA","1","m","rechts","58","","","object","j","0","true"
"null","<div style=""font-size:60px;"">+</div>","null","html-keyboard-response","118","165702","0.0-6.0-0.56","DIGA","1","m","rechts","58","","fixation","","","",""
"2754","img/120_90.png","74","image-keyboard-response","119","168457","0.0-6.0-1.56","DIGA","1","m","rechts","58","","","object","f","120","false"
"null","<div style=""font-size:60px;"">+</div>","null","html-keyboard-response","120","168912","0.0-6.0-0.57","DIGA","1","m","rechts","58","","fixation","","","",""
"2542","img/30_240.png","70","image-keyboard-response","121","171456","0.0-6.0-1.57","DIGA","1","m","rechts","58","","","object","f","30","true"
"null","<div style=""font-size:60px;"">+</div>","null","html-keyboard-response","122","171807","0.0-6.0-0.58","DIGA","1","m","rechts","58","","fixation","","","",""
"2686","img/120_30.png","70","image-keyboard-response","123","174494","0.0-6.0-1.58","DIGA","1","m","rechts","58","","","object","f","120","true"
"null","<div style=""font-size:60px;"">+</div>","null","html-keyboard-response","124","174848","0.0-6.0-0.59","DIGA","1","m","rechts","58","","fixation","","","",""
"1712","img/90_150.png","70","image-keyboard-response","125","176561","0.0-6.0-1.59","DIGA","1","m","rechts","58","","","object","j","90","false"
"null","<div style=""font-size:60px;"">+</div>","null","html-keyboard-response","126","177014","0.0-6.0-0.60","DIGA","1","m","rechts","58","","fixation","","","",""
"2701","img/150_90.png","74","image-keyboard-response","127","179715","0.0-6.0-1.60","DIGA","1","m","rechts","58","","","object","f","150","false"
"null","<div style=""font-size:60px;"">+</div>","null","html-keyboard-response","128","180020","0.0-6.0-0.61","DIGA","1","m","rechts","58","","fixation","","","",""
"1834","img/0_30.png","74","image-keyboard-response","129","181855","0.0-6.0-1.61","DIGA","1","m","rechts","58","","","object","j","0","true"
"null","<div style=""font-size:60px;"">+</div>","null","html-keyboard-response","130","182308","0.0-6.0-0.62","DIGA","1","m","rechts","58","","fixation","","","",""
"2254","img/150_240.png","70","image-keyboard-response","131","184562","0.0-6.0-1.62","DIGA","1","m","rechts","58","","","object","j","150","false"
"null","<div style=""font-size:60px;"">+</div>","null","html-keyboard-response","132","184914","0.0-6.0-0.63","DIGA","1","m","rechts","58","","fixation","","","",""
"2065","img/90_180.png","70","image-keyboard-response","133","186980","0.0-6.0-1.63","DIGA","1","m","rechts","58","","","object","f","90","true"
"null","<div style=""font-size:60px;"">+</div>","null","html-keyboard-response","134","187285","0.0-6.0-0.64","DIGA","1","m","rechts","58","","fixation","","","",""
"2099","img/150_270.png","74","image-keyboard-response","135","189384","0.0-6.0-1.64","DIGA","1","m","rechts","58","","","object","j","150","true"
"null","<div style=""font-size:60px;"">+</div>","null","html-keyboard-response","136","189889","0.0-6.0-0.65","DIGA","1","m","rechts","58","","fixation","","","",""
"1909","img/0_210.png","70","image-keyboard-response","137","191799","0.0-6.0-1.65","DIGA","1","m","rechts","58","","","object","f","0","true"
"null","<div style=""font-size:60px;"">+</div>","null","html-keyboard-response","138","192151","0.0-6.0-0.66","DIGA","1","m","rechts","58","","fixation","","","",""
"2984","img/60_30.png","70","image-keyboard-response","139","195136","0.0-6.0-1.66","DIGA","1","m","rechts","58","","","object","f","60","true"
"null","<div style=""font-size:60px;"">+</div>","null","html-keyboard-response","140","195542","0.0-6.0-0.67","DIGA","1","m","rechts","58","","fixation","","","",""
"2064","img/30_60.png","74","image-keyboard-response","141","197607","0.0-6.0-1.67","DIGA","1","m","rechts","58","","","object","j","30","true"
"null","<div style=""font-size:60px;"">+</div>","null","html-keyboard-response","142","198008","0.0-6.0-0.68","DIGA","1","m","rechts","58","","fixation","","","",""
"2740","img/30_90.png","74","image-keyboard-response","143","200750","0.0-6.0-1.68","DIGA","1","m","rechts","58","","","object","j","30","true"
"null","<div style=""font-size:60px;"">+</div>","null","html-keyboard-response","144","201155","0.0-6.0-0.69","DIGA","1","m","rechts","58","","fixation","","","",""
"1742","img/0_300.png","70","image-keyboard-response","145","202897","0.0-6.0-1.69","DIGA","1","m","rechts","58","","","object","f","0","true"
"null","<div style=""font-size:60px;"">+</div>","null","html-keyboard-response","146","203250","0.0-6.0-0.70","DIGA","1","m","rechts","58","","fixation","","","",""
"2289","img/120_330.png","74","image-keyboard-response","147","205540","0.0-6.0-1.70","DIGA","1","m","rechts","58","","","object","j","120","true"
"null","<div style=""font-size:60px;"">+</div>","null","html-keyboard-response","148","206046","0.0-6.0-0.71","DIGA","1","m","rechts","58","","fixation","","","",""
"1887","img/60_150.png","74","image-keyboard-response","149","207933","0.0-6.0-1.71","DIGA","1","m","rechts","58","","","object","j","60","true"
"null","<div style=""font-size:60px;"">+</div>","null","html-keyboard-response","150","208387","0.0-6.0-0.72","DIGA","1","m","rechts","58","","fixation","","","",""
"2523","img/150_180.png","70","image-keyboard-response","151","210910","0.0-6.0-1.72","DIGA","1","m","rechts","58","","","object","f","150","true"
"null","<div style=""font-size:60px;"">+</div>","null","html-keyboard-response","152","211315","0.0-6.0-0.73","DIGA","1","m","rechts","58","","fixation","","","",""
"1698","img/L30_180.png","74","image-keyboard-response","153","213013","0.0-6.0-1.73","DIGA","1","m","rechts","58","","","object","j","30","true"
"null","<div style=""font-size:60px;"">+</div>","null","html-keyboard-response","154","213418","0.0-6.0-0.74","DIGA","1","m","rechts","58","","fixation","","","",""
"1900","img/150_300.png","74","image-keyboard-response","155","215319","0.0-6.0-1.74","DIGA","1","m","rechts","58","","","object","j","150","true"
"null","<div style=""font-size:60px;"">+</div>","null","html-keyboard-response","156","215769","0.0-6.0-0.75","DIGA","1","m","rechts","58","","fixation","","","",""
"1873","img/0_330.png","70","image-keyboard-response","157","217643","0.0-6.0-1.75","DIGA","1","m","rechts","58","","","object","f","0","true"
"null","<div style=""font-size:60px;"">+</div>","null","html-keyboard-response","158","218045","0.0-6.0-0.76","DIGA","1","m","rechts","58","","fixation","","","",""
"1852","img/30_120.png","74","image-keyboard-response","159","219897","0.0-6.0-1.76","DIGA","1","m","rechts","58","","","object","j","30","true"
"null","<div style=""font-size:60px;"">+</div>","null","html-keyboard-response","160","220349","0.0-6.0-0.77","DIGA","1","m","rechts","58","","fixation","","","",""
"1595","img/60_90.png","74","image-keyboard-response","161","221944","0.0-6.0-1.77","DIGA","1","m","rechts","58","","","object","j","60","true"
"null","<div style=""font-size:60px;"">+</div>","null","html-keyboard-response","162","222351","0.0-6.0-0.78","DIGA","1","m","rechts","58","","fixation","","","",""
"2729","img/0_270.png","70","image-keyboard-response","163","225080","0.0-6.0-1.78","DIGA","1","m","rechts","58","","","object","f","0","true"
"null","<div style=""font-size:60px;"">+</div>","null","html-keyboard-response","164","225486","0.0-6.0-0.79","DIGA","1","m","rechts","58","","fixation","","","",""
"1576","img/0_120.png","74","image-keyboard-response","165","227063","0.0-6.0-1.79","DIGA","1","m","rechts","58","","","object","j","0","true"
"null","<div style=""font-size:60px;"">+</div>","null","html-keyboard-response","166","227565","0.0-6.0-0.80","DIGA","1","m","rechts","58","","fixation","","","",""
"1569","img/60_210.png","70","image-keyboard-response","167","229135","0.0-6.0-1.80","DIGA","1","m","rechts","58","","","object","f","60","true"
"null","<div style=""font-size:60px;"">+</div>","null","html-keyboard-response","168","229642","0.0-6.0-0.81","DIGA","1","m","rechts","58","","fixation","","","",""
"1565","img/90_210.png","70","image-keyboard-response","169","231207","0.0-6.0-1.81","DIGA","1","m","rechts","58","","","object","f","90","true"
"null","<div style=""font-size:60px;"">+</div>","null","html-keyboard-response","170","231613","0.0-6.0-0.82","DIGA","1","m","rechts","58","","fixation","","","",""
"2461","img/90_60.png","70","image-keyboard-response","171","234075","0.0-6.0-1.82","DIGA","1","m","rechts","58","","","object","f","90","true"
"null","<div style=""font-size:60px;"">+</div>","null","html-keyboard-response","172","234580","0.0-6.0-0.83","DIGA","1","m","rechts","58","","fixation","","","",""
"1631","img/L120_180.png","74","image-keyboard-response","173","236213","0.0-6.0-1.83","DIGA","1","m","rechts","58","","","object","j","120","true"
"null","<div style=""font-size:60px;"">+</div>","null","html-keyboard-response","174","236717","0.0-6.0-0.84","DIGA","1","m","rechts","58","","fixation","","","",""
"2037","img/L60_180.png","74","image-keyboard-response","175","238754","0.0-6.0-1.84","DIGA","1","m","rechts","58","","","object","j","60","true"
"null","<div style=""font-size:60px;"">+</div>","null","html-keyboard-response","176","239206","0.0-6.0-0.85","DIGA","1","m","rechts","58","","fixation","","","",""
"1734","img/120_150.png","74","image-keyboard-response","177","240941","0.0-6.0-1.85","DIGA","1","m","rechts","58","","","object","j","120","true"
"null","<div style=""font-size:60px;"">+</div>","null","html-keyboard-response","178","241244","0.0-6.0-0.86","DIGA","1","m","rechts","58","","fixation","","","",""
"2128","img/120_180.png","70","image-keyboard-response","179","243374","0.0-6.0-1.86","DIGA","1","m","rechts","58","","","object","f","120","true"
"null","<div style=""font-size:60px;"">+</div>","null","html-keyboard-response","180","243879","0.0-6.0-0.87","DIGA","1","m","rechts","58","","fixation","","","",""
"1291","img/0_60.png","74","image-keyboard-response","181","245171","0.0-6.0-1.87","DIGA","1","m","rechts","58","","","object","j","0","true"
"null","<div style=""font-size:60px;"">+</div>","null","html-keyboard-response","182","245673","0.0-6.0-0.88","DIGA","1","m","rechts","58","","fixation","","","",""
"1723","img/90_120.png","74","image-keyboard-response","183","247397","0.0-6.0-1.88","DIGA","1","m","rechts","58","","","object","j","90","true"
"null","<div style=""font-size:60px;"">+</div>","null","html-keyboard-response","184","247750","0.0-6.0-0.89","DIGA","1","m","rechts","58","","fixation","","","",""
"2085","img/0_90.png","74","image-keyboard-response","185","249836","0.0-6.0-1.89","DIGA","1","m","rechts","58","","","object","j","0","true"
"null","<div style=""font-size:60px;"">+</div>","null","html-keyboard-response","186","250188","0.0-6.0-0.90","DIGA","1","m","rechts","58","","fixation","","","",""
"1750","img/60_330.png","74","image-keyboard-response","187","251938","0.0-6.0-1.90","DIGA","1","m","rechts","58","","","object","j","60","true"
"null","<div style=""font-size:60px;"">+</div>","null","html-keyboard-response","188","252394","0.0-6.0-0.91","DIGA","1","m","rechts","58","","fixation","","","",""
"1933","img/120_210.png","70","image-keyboard-response","189","254328","0.0-6.0-1.91","DIGA","1","m","rechts","58","","","object","f","120","true"
"null","<div style=""font-size:60px;"">+</div>","null","html-keyboard-response","190","254779","0.0-6.0-0.92","DIGA","1","m","rechts","58","","fixation","","","",""
"2282","img/150_60.png","70","image-keyboard-response","191","257062","0.0-6.0-1.92","DIGA","1","m","rechts","58","","","object","f","150","true"
"null","<div style=""font-size:60px;"">+</div>","null","html-keyboard-response","192","257514","0.0-6.0-0.93","DIGA","1","m","rechts","58","","fixation","","","",""
"null","img/90_240.png","null","image-keyboard-response","193","260521","0.0-6.0-1.93","DIGA","1","m","rechts","58","","","object","f","90","false"
"null","<div style=""font-size:60px;"">+</div>","null","html-keyboard-response","194","261025","0.0-6.0-0.94","DIGA","1","m","rechts","58","","fixation","","","",""
"2333","img/L150_180.png","74","image-keyboard-response","195","263360","0.0-6.0-1.94","DIGA","1","m","rechts","58","","","object","j","150","true"
"null","<div style=""font-size:60px;"">+</div>","null","html-keyboard-response","196","263864","0.0-6.0-0.95","DIGA","1","m","rechts","58","","fixation","","","",""
"2460","img/150_120.png","70","image-keyboard-response","197","266325","0.0-6.0-1.95","DIGA","1","m","rechts","58","","","object","f","150","true"
"null","<div style=""font-size:60px;"">+</div>","null","html-keyboard-response","198","266781","0.0-6.0-0.96","DIGA","1","m","rechts","58","","fixation","","","",""
"1813","img/60_270.png","70","image-keyboard-response","199","268595","0.0-6.0-1.96","DIGA","1","m","rechts","58","","","object","f","60","true"
"null","<div style=""font-size:60px;"">+</div>","null","html-keyboard-response","200","269101","0.0-6.0-0.97","DIGA","1","m","rechts","58","","fixation","","","",""
"1778","img/30_270.png","70","image-keyboard-response","201","270879","0.0-6.0-1.97","DIGA","1","m","rechts","58","","","object","f","30","true"
"null","<div style=""font-size:60px;"">+</div>","null","html-keyboard-response","202","271335","0.0-6.0-0.98","DIGA","1","m","rechts","58","","fixation","","","",""
"1606","img/90_300.png","74","image-keyboard-response","203","272941","0.0-6.0-1.98","DIGA","1","m","rechts","58","","","object","j","90","true"
"null","<div style=""font-size:60px;"">+</div>","null","html-keyboard-response","204","273446","0.0-6.0-0.99","DIGA","1","m","rechts","58","","fixation","","","",""
"2236","img/0_240.png","70","image-keyboard-response","205","275682","0.0-6.0-1.99","DIGA","1","m","rechts","58","","","object","f","0","true"
"null","<div style=""font-size:60px;"">+</div>","null","html-keyboard-response","206","275988","0.0-6.0-0.100","DIGA","1","m","rechts","58","","fixation","","","",""
"1893","img/30_300.png","70","image-keyboard-response","207","277882","0.0-6.0-1.100","DIGA","1","m","rechts","58","","","object","f","30","true"
"null","<div style=""font-size:60px;"">+</div>","null","html-keyboard-response","208","278233","0.0-6.0-0.101","DIGA","1","m","rechts","58","","fixation","","","",""
"2509","img/120_270.png","74","image-keyboard-response","209","280742","0.0-6.0-1.101","DIGA","1","m","rechts","58","","","object","j","120","true"
"null","<div style=""font-size:60px;"">+</div>","null","html-keyboard-response","210","281195","0.0-6.0-0.102","DIGA","1","m","rechts","58","","fixation","","","",""
"1449","img/60_180.png","70","image-keyboard-response","211","282644","0.0-6.0-1.102","DIGA","1","m","rechts","58","","","object","f","60","true"
"null","<div style=""font-size:60px;"">+</div>","null","html-keyboard-response","212","283046","0.0-6.0-0.103","DIGA","1","m","rechts","58","","fixation","","","",""
"1989","img/L90_180.png","74","image-keyboard-response","213","285035","0.0-6.0-1.103","DIGA","1","m","rechts","58","","","object","j","90","true"
"null","<div style=""font-size:60px;"">+</div>","null","html-keyboard-response","214","285489","0.0-6.0-0.104","DIGA","1","m","rechts","58","","fixation","","","",""
"2205","img/90_240.png","74","image-keyboard-response","215","287694","0.0-6.0-1.104","DIGA","1","m","rechts","58","","","object","f","90","false"
"null","<div style=""font-size:60px;"">+</div>","null","html-keyboard-response","216","288098","0.0-6.0-0.105","DIGA","1","m","rechts","58","","fixation","","","",""
"1928","img/90_180.png","70","image-keyboard-response","217","290027","0.0-6.0-1.105","DIGA","1","m","rechts","58","","","object","f","90","true"
"null","<div style=""font-size:60px;"">+</div>","null","html-keyboard-response","218","290527","0.0-6.0-0.106","DIGA","1","m","rechts","58","","fixation","","","",""
"2070","img/150_120.png","70","image-keyboard-response","219","292598","0.0-6.0-1.106","DIGA","1","m","rechts","58","","","object","f","150","true"
"null","<div style=""font-size:60px;"">+</div>","null","html-keyboard-response","220","293051","0.0-6.0-0.107","DIGA","1","m","rechts","58","","fixation","","","",""
"1785","img/0_210.png","70","image-keyboard-response","221","294836","0.0-6.0-1.107","DIGA","1","m","rechts","58","","","object","f","0","true"
"null","<div style=""font-size:60px;"">+</div>","null","html-keyboard-response","222","295287","0.0-6.0-0.108","DIGA","1","m","rechts","58","","fixation","","","",""
"2238","img/120_150.png","74","image-keyboard-response","223","297525","0.0-6.0-1.108","DIGA","1","m","rechts","58","","","object","j","120","true"
"null","<div style=""font-size:60px;"">+</div>","null","html-keyboard-response","224","297829","0.0-6.0-0.109","DIGA","1","m","rechts","58","","fixation","","","",""
"2036","img/30_180.png","70","image-keyboard-response","225","299865","0.0-6.0-1.109","DIGA","1","m","rechts","58","","","object","f","30","true"
"null","<div style=""font-size:60px;"">+</div>","null","html-keyboard-response","226","300271","0.0-6.0-0.110","DIGA","1","m","rechts","58","","fixation","","","",""
"1886","img/150_300.png","74","image-keyboard-response","227","302158","0.0-6.0-1.110","DIGA","1","m","rechts","58","","","object","j","150","true"
"null","<div style=""font-size:60px;"">+</div>","null","html-keyboard-response","228","302613","0.0-6.0-0.111","DIGA","1","m","rechts","58","","fixation","","","",""
"2003","img/90_210.png","70","image-keyboard-response","229","304616","0.0-6.0-1.111","DIGA","1","m","rechts","58","","","object","f","90","true"
"null","<div style=""font-size:60px;"">+</div>","null","html-keyboard-response","230","305120","0.0-6.0-0.112","DIGA","1","m","rechts","58","","fixation","","","",""
"1630","img/0_30.png","74","image-keyboard-response","231","306752","0.0-6.0-1.112","DIGA","1","m","rechts","58","","","object","j","0","true"
"null","<div style=""font-size:60px;"">+</div>","null","html-keyboard-response","232","307207","0.0-6.0-0.113","DIGA","1","m","rechts","58","","fixation","","","",""
"2408","img/150_180.png","70","image-keyboard-response","233","309615","0.0-6.0-1.113","DIGA","1","m","rechts","58","","","object","f","150","true"
"null","<div style=""font-size:60px;"">+</div>","null","html-keyboard-response","234","309920","0.0-6.0-0.114","DIGA","1","m","rechts","58","","fixation","","","",""
"1901","img/60_270.png","70","image-keyboard-response","235","311821","0.0-6.0-1.114","DIGA","1","m","rechts","58","","","object","f","60","true"
"null","<div style=""font-size:60px;"">+</div>","null","html-keyboard-response","236","312125","0.0-6.0-0.115","DIGA","1","m","rechts","58","","fixation","","","",""
"2098","img/120_90.png","74","image-keyboard-response","237","314224","0.0-6.0-1.115","DIGA","1","m","rechts","58","","","object","f","120","false"
"null","<div style=""font-size:60px;"">+</div>","null","html-keyboard-response","238","314627","0.0-6.0-0.116","DIGA","1","m","rechts","58","","fixation","","","",""
"2178","img/90_30.png","70","image-keyboard-response","239","316806","0.0-6.0-1.116","DIGA","1","m","rechts","58","","","object","f","90","true"
"null","<div style=""font-size:60px;"">+</div>","null","html-keyboard-response","240","317211","0.0-6.0-0.117","DIGA","1","m","rechts","58","","fixation","","","",""
"2310","img/L30_180.png","74","image-keyboard-response","241","319523","0.0-6.0-1.117","DIGA","1","m","rechts","58","","","object","j","30","true"
"null","<div style=""font-size:60px;"">+</div>","null","html-keyboard-response","242","319878","0.0-6.0-0.118","DIGA","1","m","rechts","58","","fixation","","","",""
"1742","img/0_90.png","74","image-keyboard-response","243","321620","0.0-6.0-1.118","DIGA","1","m","rechts","58","","","object","j","0","true"
"null","<div style=""font-size:60px;"">+</div>","null","html-keyboard-response","244","322074","0.0-6.0-0.119","DIGA","1","m","rechts","58","","fixation","","","",""
"2006","img/L90_180.png","74","image-keyboard-response","245","324081","0.0-6.0-1.119","DIGA","1","m","rechts","58","","","object","j","90","true"
"null","<div style=""font-size:60px;"">+</div>","null","html-keyboard-response","246","324387","0.0-6.0-0.120","DIGA","1","m","rechts","58","","fixation","","","",""
"1956","img/90_120.png","74","image-keyboard-response","247","326344","0.0-6.0-1.120","DIGA","1","m","rechts","58","","","object","j","90","true"
"null","<div style=""font-size:60px;"">+</div>","null","html-keyboard-response","248","326746","0.0-6.0-0.121","DIGA","1","m","rechts","58","","fixation","","","",""
"2100","img/120_210.png","70","image-keyboard-response","249","328847","0.0-6.0-1.121","DIGA","1","m","rechts","58","","","object","f","120","true"
"null","<div style=""font-size:60px;"">+</div>","null","html-keyboard-response","250","329253","0.0-6.0-0.122","DIGA","1","m","rechts","58","","fixation","","","",""
"1441","img/0_60.png","74","image-keyboard-response","251","330694","0.0-6.0-1.122","DIGA","1","m","rechts","58","","","object","j","0","true"
"null","<div style=""font-size:60px;"">+</div>","null","html-keyboard-response","252","330999","0.0-6.0-0.123","DIGA","1","m","rechts","58","","fixation","","","",""
"2717","img/120_180.png","70","image-keyboard-response","253","333716","0.0-6.0-1.123","DIGA","1","m","rechts","58","","","object","f","120","true"
"null","<div style=""font-size:60px;"">+</div>","null","html-keyboard-response","254","334118","0.0-6.0-0.124","DIGA","1","m","rechts","58","","fixation","","","",""
"1781","img/150_240.png","74","image-keyboard-response","255","335900","0.0-6.0-1.124","DIGA","1","m","rechts","58","","","object","j","150","true"
"null","<div style=""font-size:60px;"">+</div>","null","html-keyboard-response","256","336204","0.0-6.0-0.125","DIGA","1","m","rechts","58","","fixation","","","",""
"1799","img/120_270.png","74","image-keyboard-response","257","338005","0.0-6.0-1.125","DIGA","1","m","rechts","58","","","object","j","120","true"
"null","<div style=""font-size:60px;"">+</div>","null","html-keyboard-response","258","338511","0.0-6.0-0.126","DIGA","1","m","rechts","58","","fixation","","","",""
"2378","img/30_120.png","74","image-keyboard-response","259","340889","0.0-6.0-1.126","DIGA","1","m","rechts","58","","","object","j","30","true"
"null","<div style=""font-size:60px;"">+</div>","null","html-keyboard-response","260","341394","0.0-6.0-0.127","DIGA","1","m","rechts","58","","fixation","","","",""
"1682","img/0_240.png","70","image-keyboard-response","261","343077","0.0-6.0-1.127","DIGA","1","m","rechts","58","","","object","f","0","true"
"null","<div style=""font-size:60px;"">+</div>","null","html-keyboard-response","262","343579","0.0-6.0-0.128","DIGA","1","m","rechts","58","","fixation","","","",""
"1731","img/L120_180.png","74","image-keyboard-response","263","345310","0.0-6.0-1.128","DIGA","1","m","rechts","58","","","object","j","120","true"
"null","<div style=""font-size:60px;"">+</div>","null","html-keyboard-response","264","345765","0.0-6.0-0.129","DIGA","1","m","rechts","58","","fixation","","","",""
"1696","img/0_120.png","74","image-keyboard-response","265","347463","0.0-6.0-1.129","DIGA","1","m","rechts","58","","","object","j","0","true"
"null","<div style=""font-size:60px;"">+</div>","null","html-keyboard-response","266","347967","0.0-6.0-0.130","DIGA","1","m","rechts","58","","fixation","","","",""
"2586","img/150_60.png","70","image-keyboard-response","267","350554","0.0-6.0-1.130","DIGA","1","m","rechts","58","","","object","f","150","true"
"null","<div style=""font-size:60px;"">+</div>","null","html-keyboard-response","268","350956","0.0-6.0-0.131","DIGA","1","m","rechts","58","","fixation","","","",""
"1973","img/60_330.png","74","image-keyboard-response","269","352929","0.0-6.0-1.131","DIGA","1","m","rechts","58","","","object","j","60","true"
"null","<div style=""font-size:60px;"">+</div>","null","html-keyboard-response","270","353382","0.0-6.0-0.132","DIGA","1","m","rechts","58","","fixation","","","",""
"1992","img/90_330.png","74","image-keyboard-response","271","355375","0.0-6.0-1.132","DIGA","1","m","rechts","58","","","object","j","90","true"
"null","<div style=""font-size:60px;"">+</div>","null","html-keyboard-response","272","355779","0.0-6.0-0.133","DIGA","1","m","rechts","58","","fixation","","","",""
"2731","img/60_150.png","74","image-keyboard-response","273","358511","0.0-6.0-1.133","DIGA","1","m","rechts","58","","","object","j","60","true"
"null","<div style=""font-size:60px;"">+</div>","null","html-keyboard-response","274","359018","0.0-6.0-0.134","DIGA","1","m","rechts","58","","fixation","","","",""
"2190","img/30_90.png","74","image-keyboard-response","275","361208","0.0-6.0-1.134","DIGA","1","m","rechts","58","","","object","j","30","true"
"null","<div style=""font-size:60px;"">+</div>","null","html-keyboard-response","276","361711","0.0-6.0-0.135","DIGA","1","m","rechts","58","","fixation","","","",""
"1983","img/60_30.png","70","image-keyboard-response","277","363694","0.0-6.0-1.135","DIGA","1","m","rechts","58","","","object","f","60","true"
"null","<div style=""font-size:60px;"">+</div>","null","html-keyboard-response","278","364046","0.0-6.0-0.136","DIGA","1","m","rechts","58","","fixation","","","",""
"2303","img/120_330.png","74","image-keyboard-response","279","366349","0.0-6.0-1.136","DIGA","1","m","rechts","58","","","object","j","120","true"
"null","<div style=""font-size:60px;"">+</div>","null","html-keyboard-response","280","366802","0.0-6.0-0.137","DIGA","1","m","rechts","58","","fixation","","","",""
"2823","img/L60_180.png","74","image-keyboard-response","281","369625","0.0-6.0-1.137","DIGA","1","m","rechts","58","","","object","j","60","true"
"null","<div style=""font-size:60px;"">+</div>","null","html-keyboard-response","282","370127","0.0-6.0-0.138","DIGA","1","m","rechts","58","","fixation","","","",""
"2120","img/60_210.png","70","image-keyboard-response","283","372247","0.0-6.0-1.138","DIGA","1","m","rechts","58","","","object","f","60","true"
"null","<div style=""font-size:60px;"">+</div>","null","html-keyboard-response","284","372653","0.0-6.0-0.139","DIGA","1","m","rechts","58","","fixation","","","",""
"1753","img/0_330.png","70","image-keyboard-response","285","374406","0.0-6.0-1.139","DIGA","1","m","rechts","58","","","object","f","0","true"
"null","<div style=""font-size:60px;"">+</div>","null","html-keyboard-response","286","374910","0.0-6.0-0.140","DIGA","1","m","rechts","58","","fixation","","","",""
"2037","img/90_300.png","74","image-keyboard-response","287","376947","0.0-6.0-1.140","DIGA","1","m","rechts","58","","","object","j","90","true"
"null","<div style=""font-size:60px;"">+</div>","null","html-keyboard-response","288","377301","0.0-6.0-0.141","DIGA","1","m","rechts","58","","fixation","","","",""
"2068","img/60_180.png","70","image-keyboard-response","289","379370","0.0-6.0-1.141","DIGA","1","m","rechts","58","","","object","f","60","true"
"null","<div style=""font-size:60px;"">+</div>","null","html-keyboard-response","290","379721","0.0-6.0-0.142","DIGA","1","m","rechts","58","","fixation","","","",""
"1672","img/0_150.png","74","image-keyboard-response","291","381394","0.0-6.0-1.142","DIGA","1","m","rechts","58","","","object","j","0","true"
"null","<div style=""font-size:60px;"">+</div>","null","html-keyboard-response","292","381899","0.0-6.0-0.143","DIGA","1","m","rechts","58","","fixation","","","",""
"2088","img/90_60.png","70","image-keyboard-response","293","383987","0.0-6.0-1.143","DIGA","1","m","rechts","58","","","object","f","90","true"
"null","<div style=""font-size:60px;"">+</div>","null","html-keyboard-response","294","384492","0.0-6.0-0.144","DIGA","1","m","rechts","58","","fixation","","","",""
"2639","img/30_270.png","70","image-keyboard-response","295","387133","0.0-6.0-1.144","DIGA","1","m","rechts","58","","","object","f","30","true"
"null","<div style=""font-size:60px;"">+</div>","null","html-keyboard-response","296","387488","0.0-6.0-0.145","DIGA","1","m","rechts","58","","fixation","","","",""
"1843","img/0_270.png","70","image-keyboard-response","297","389333","0.0-6.0-1.145","DIGA","1","m","rechts","58","","","object","f","0","true"
"null","<div style=""font-size:60px;"">+</div>","null","html-keyboard-response","298","389687","0.0-6.0-0.146","DIGA","1","m","rechts","58","","fixation","","","",""
"2071","img/60_90.png","74","image-keyboard-response","299","391759","0.0-6.0-1.146","DIGA","1","m","rechts","58","","","object","j","60","true"
"null","<div style=""font-size:60px;"">+</div>","null","html-keyboard-response","300","392061","0.0-6.0-0.147","DIGA","1","m","rechts","58","","fixation","","","",""
"1989","img/150_270.png","70","image-keyboard-response","301","394051","0.0-6.0-1.147","DIGA","1","m","rechts","58","","","object","j","150","false"
"null","<div style=""font-size:60px;"">+</div>","null","html-keyboard-response","302","394557","0.0-6.0-0.148","DIGA","1","m","rechts","58","","fixation","","","",""
"2842","img/120_30.png","70","image-keyboard-response","303","397400","0.0-6.0-1.148","DIGA","1","m","rechts","58","","","object","f","120","true"
"null","<div style=""font-size:60px;"">+</div>","null","html-keyboard-response","304","397703","0.0-6.0-0.149","DIGA","1","m","rechts","58","","fixation","","","",""
"2145","img/90_150.png","74","image-keyboard-response","305","399849","0.0-6.0-1.149","DIGA","1","m","rechts","58","","","object","j","90","true"
"null","<div style=""font-size:60px;"">+</div>","null","html-keyboard-response","306","400304","0.0-6.0-0.150","DIGA","1","m","rechts","58","","fixation","","","",""
"2916","img/150_90.png","74","image-keyboard-response","307","403222","0.0-6.0-1.150","DIGA","1","m","rechts","58","","","object","f","150","false"
"null","<div style=""font-size:60px;"">+</div>","null","html-keyboard-response","308","403525","0.0-6.0-0.151","DIGA","1","m","rechts","58","","fixation","","","",""
"2007","img/30_300.png","70","image-keyboard-response","309","405532","0.0-6.0-1.151","DIGA","1","m","rechts","58","","","object","f","30","true"
"null","<div style=""font-size:60px;"">+</div>","null","html-keyboard-response","310","405886","0.0-6.0-0.152","DIGA","1","m","rechts","58","","fixation","","","",""
"2015","img/0_300.png","70","image-keyboard-response","311","407902","0.0-6.0-1.152","DIGA","1","m","rechts","58","","","object","f","0","true"
"null","<div style=""font-size:60px;"">+</div>","null","html-keyboard-response","312","408406","0.0-6.0-0.153","DIGA","1","m","rechts","58","","fixation","","","",""
"1907","img/30_60.png","74","image-keyboard-response","313","410313","0.0-6.0-1.153","DIGA","1","m","rechts","58","","","object","j","30","true"
"null","<div style=""font-size:60px;"">+</div>","null","html-keyboard-response","314","410664","0.0-6.0-0.154","DIGA","1","m","rechts","58","","fixation","","","",""
"2204","img/30_240.png","70","image-keyboard-response","315","412869","0.0-6.0-1.154","DIGA","1","m","rechts","58","","","object","f","30","true"
"null","<div style=""font-size:60px;"">+</div>","null","html-keyboard-response","316","413171","0.0-6.0-0.155","DIGA","1","m","rechts","58","","fixation","","","",""
"null","img/L150_180.png","null","image-keyboard-response","317","416173","0.0-6.0-1.155","DIGA","1","m","rechts","58","","","object","j","150","false"
"null","<div style=""font-size:60px;"">+</div>","null","html-keyboard-response","318","416474","0.0-6.0-0.156","DIGA","1","m","rechts","58","","fixation","","","",""
"2108","img/L60_180.png","74","image-keyboard-response","319","418584","0.0-6.0-1.156","DIGA","1","m","rechts","58","","","object","j","60","true"
"null","<div style=""font-size:60px;"">+</div>","null","html-keyboard-response","320","419085","0.0-6.0-0.157","DIGA","1","m","rechts","58","","fixation","","","",""
"2235","img/30_120.png","74","image-keyboard-response","321","421322","0.0-6.0-1.157","DIGA","1","m","rechts","58","","","object","j","30","true"
"null","<div style=""font-size:60px;"">+</div>","null","html-keyboard-response","322","421827","0.0-6.0-0.158","DIGA","1","m","rechts","58","","fixation","","","",""
"1830","img/30_300.png","70","image-keyboard-response","323","423657","0.0-6.0-1.158","DIGA","1","m","rechts","58","","","object","f","30","true"
"null","<div style=""font-size:60px;"">+</div>","null","html-keyboard-response","324","424158","0.0-6.0-0.159","DIGA","1","m","rechts","58","","fixation","","","",""
"1890","img/60_270.png","70","image-keyboard-response","325","426049","0.0-6.0-1.159","DIGA","1","m","rechts","58","","","object","f","60","true"
"null","<div style=""font-size:60px;"">+</div>","null","html-keyboard-response","326","426405","0.0-6.0-0.160","DIGA","1","m","rechts","58","","fixation","","","",""
"1576","img/0_90.png","74","image-keyboard-response","327","427981","0.0-6.0-1.160","DIGA","1","m","rechts","58","","","object","j","0","true"
"null","<div style=""font-size:60px;"">+</div>","null","html-keyboard-response","328","428332","0.0-6.0-0.161","DIGA","1","m","rechts","58","","fixation","","","",""
"1485","img/0_60.png","74","image-keyboard-response","329","429817","0.0-6.0-1.161","DIGA","1","m","rechts","58","","","object","j","0","true"
"null","<div style=""font-size:60px;"">+</div>","null","html-keyboard-response","330","430119","0.0-6.0-0.162","DIGA","1","m","rechts","58","","fixation","","","",""
"2287","img/60_180.png","70","image-keyboard-response","331","432406","0.0-6.0-1.162","DIGA","1","m","rechts","58","","","object","f","60","true"
"null","<div style=""font-size:60px;"">+</div>","null","html-keyboard-response","332","432760","0.0-6.0-0.163","DIGA","1","m","rechts","58","","fixation","","","",""
"2003","img/L90_180.png","74","image-keyboard-response","333","434763","0.0-6.0-1.163","DIGA","1","m","rechts","58","","","object","j","90","true"
"null","<div style=""font-size:60px;"">+</div>","null","html-keyboard-response","334","435117","0.0-6.0-0.164","DIGA","1","m","rechts","58","","fixation","","","",""
"1766","img/0_150.png","74","image-keyboard-response","335","436884","0.0-6.0-1.164","DIGA","1","m","rechts","58","","","object","j","0","true"
"null","<div style=""font-size:60px;"">+</div>","null","html-keyboard-response","336","437288","0.0-6.0-0.165","DIGA","1","m","rechts","58","","fixation","","","",""
"2761","img/150_60.png","70","image-keyboard-response","337","440049","0.0-6.0-1.165","DIGA","1","m","rechts","58","","","object","f","150","true"
"null","<div style=""font-size:60px;"">+</div>","null","html-keyboard-response","338","440503","0.0-6.0-0.166","DIGA","1","m","rechts","58","","fixation","","","",""
"2465","img/90_330.png","74","image-keyboard-response","339","442969","0.0-6.0-1.166","DIGA","1","m","rechts","58","","","object","j","90","true"
"null","<div style=""font-size:60px;"">+</div>","null","html-keyboard-response","340","443370","0.0-6.0-0.167","DIGA","1","m","rechts","58","","fixation","","","",""
"2187","img/150_90.png","70","image-keyboard-response","341","445558","0.0-6.0-1.167","DIGA","1","m","rechts","58","","","object","f","150","true"
"null","<div style=""font-size:60px;"">+</div>","null","html-keyboard-response","342","446011","0.0-6.0-0.168","DIGA","1","m","rechts","58","","fixation","","","",""
"2522","img/120_180.png","70","image-keyboard-response","343","448533","0.0-6.0-1.168","DIGA","1","m","rechts","58","","","object","f","120","true"
"null","<div style=""font-size:60px;"">+</div>","null","html-keyboard-response","344","448988","0.0-6.0-0.169","DIGA","1","m","rechts","58","","fixation","","","",""
"2484","img/120_210.png","74","image-keyboard-response","345","451472","0.0-6.0-1.169","DIGA","1","m","rechts","58","","","object","f","120","false"
"null","<div style=""font-size:60px;"">+</div>","null","html-keyboard-response","346","451828","0.0-6.0-0.170","DIGA","1","m","rechts","58","","fixation","","","",""
"1676","img/90_30.png","70","image-keyboard-response","347","453504","0.0-6.0-1.170","DIGA","1","m","rechts","58","","","object","f","90","true"
"null","<div style=""font-size:60px;"">+</div>","null","html-keyboard-response","348","454010","0.0-6.0-0.171","DIGA","1","m","rechts","58","","fixation","","","",""
"2000","img/60_210.png","70","image-keyboard-response","349","456010","0.0-6.0-1.171","DIGA","1","m","rechts","58","","","object","f","60","true"
"null","<div style=""font-size:60px;"">+</div>","null","html-keyboard-response","350","456314","0.0-6.0-0.172","DIGA","1","m","rechts","58","","fixation","","","",""
"2166","img/120_150.png","74","image-keyboard-response","351","458480","0.0-6.0-1.172","DIGA","1","m","rechts","58","","","object","j","120","true"
"null","<div style=""font-size:60px;"">+</div>","null","html-keyboard-response","352","458931","0.0-6.0-0.173","DIGA","1","m","rechts","58","","fixation","","","",""
"2760","img/90_240.png","70","image-keyboard-response","353","461692","0.0-6.0-1.173","DIGA","1","m","rechts","58","","","object","f","90","true"
"null","<div style=""font-size:60px;"">+</div>","null","html-keyboard-response","354","462095","0.0-6.0-0.174","DIGA","1","m","rechts","58","","fixation","","","",""
"1577","img/0_330.png","70","image-keyboard-response","355","463673","0.0-6.0-1.174","DIGA","1","m","rechts","58","","","object","f","0","true"
"null","<div style=""font-size:60px;"">+</div>","null","html-keyboard-response","356","464178","0.0-6.0-0.175","DIGA","1","m","rechts","58","","fixation","","","",""
"2147","img/90_60.png","70","image-keyboard-response","357","466326","0.0-6.0-1.175","DIGA","1","m","rechts","58","","","object","f","90","true"
"null","<div style=""font-size:60px;"">+</div>","null","html-keyboard-response","358","466731","0.0-6.0-0.176","DIGA","1","m","rechts","58","","fixation","","","",""
"2958","img/90_120.png","70","image-keyboard-response","359","469691","0.0-6.0-1.176","DIGA","1","m","rechts","58","","","object","j","90","false"
"null","<div style=""font-size:60px;"">+</div>","null","html-keyboard-response","360","470146","0.0-6.0-0.177","DIGA","1","m","rechts","58","","fixation","","","",""
"1704","img/90_150.png","70","image-keyboard-response","361","471852","0.0-6.0-1.177","DIGA","1","m","rechts","58","","","object","j","90","false"
"null","<div style=""font-size:60px;"">+</div>","null","html-keyboard-response","362","472153","0.0-6.0-0.178","DIGA","1","m","rechts","58","","fixation","","","",""
"2190","img/90_180.png","70","image-keyboard-response","363","474344","0.0-6.0-1.178","DIGA","1","m","rechts","58","","","object","f","90","true"
"null","<div style=""font-size:60px;"">+</div>","null","html-keyboard-response","364","474649","0.0-6.0-0.179","DIGA","1","m","rechts","58","","fixation","","","",""
"2057","img/30_60.png","74","image-keyboard-response","365","476706","0.0-6.0-1.179","DIGA","1","m","rechts","58","","","object","j","30","true"
"null","<div style=""font-size:60px;"">+</div>","null","html-keyboard-response","366","477210","0.0-6.0-0.180","DIGA","1","m","rechts","58","","fixation","","","",""
"2199","img/90_300.png","70","image-keyboard-response","367","479409","0.0-6.0-1.180","DIGA","1","m","rechts","58","","","object","j","90","false"
"null","<div style=""font-size:60px;"">+</div>","null","html-keyboard-response","368","479711","0.0-6.0-0.181","DIGA","1","m","rechts","58","","fixation","","","",""
"2616","img/90_210.png","70","image-keyboard-response","369","482328","0.0-6.0-1.181","DIGA","1","m","rechts","58","","","object","f","90","true"
"null","<div style=""font-size:60px;"">+</div>","null","html-keyboard-response","370","482833","0.0-6.0-0.182","DIGA","1","m","rechts","58","","fixation","","","",""
"1769","img/150_270.png","74","image-keyboard-response","371","484602","0.0-6.0-1.182","DIGA","1","m","rechts","58","","","object","j","150","true"
"null","<div style=""font-size:60px;"">+</div>","null","html-keyboard-response","372","485056","0.0-6.0-0.183","DIGA","1","m","rechts","58","","fixation","","","",""
"1727","img/120_270.png","74","image-keyboard-response","373","486784","0.0-6.0-1.183","DIGA","1","m","rechts","58","","","object","j","120","true"
"null","<div style=""font-size:60px;"">+</div>","null","html-keyboard-response","374","487088","0.0-6.0-0.184","DIGA","1","m","rechts","58","","fixation","","","",""
"1843","img/L30_180.png","74","image-keyboard-response","375","488931","0.0-6.0-1.184","DIGA","1","m","rechts","58","","","object","j","30","true"
"null","<div style=""font-size:60px;"">+</div>","null","html-keyboard-response","376","489287","0.0-6.0-0.185","DIGA","1","m","rechts","58","","fixation","","","",""
"1590","img/30_270.png","70","image-keyboard-response","377","490878","0.0-6.0-1.185","DIGA","1","m","rechts","58","","","object","f","30","true"
"null","<div style=""font-size:60px;"">+</div>","null","html-keyboard-response","378","491284","0.0-6.0-0.186","DIGA","1","m","rechts","58","","fixation","","","",""
"1785","img/0_300.png","70","image-keyboard-response","379","493071","0.0-6.0-1.186","DIGA","1","m","rechts","58","","","object","f","0","true"
"null","<div style=""font-size:60px;"">+</div>","null","html-keyboard-response","380","493473","0.0-6.0-0.187","DIGA","1","m","rechts","58","","fixation","","","",""
"1796","img/150_180.png","74","image-keyboard-response","381","495269","0.0-6.0-1.187","DIGA","1","m","rechts","58","","","object","f","150","false"
"null","<div style=""font-size:60px;"">+</div>","null","html-keyboard-response","382","495620","0.0-6.0-0.188","DIGA","1","m","rechts","58","","fixation","","","",""
"2559","img/L120_180.png","74","image-keyboard-response","383","498180","0.0-6.0-1.188","DIGA","1","m","rechts","58","","","object","j","120","true"
"null","<div style=""font-size:60px;"">+</div>","null","html-keyboard-response","384","498631","0.0-6.0-0.189","DIGA","1","m","rechts","58","","fixation","","","",""
"2160","img/60_150.png","70","image-keyboard-response","385","500792","0.0-6.0-1.189","DIGA","1","m","rechts","58","","","object","j","60","false"
"null","<div style=""font-size:60px;"">+</div>","null","html-keyboard-response","386","501198","0.0-6.0-0.190","DIGA","1","m","rechts","58","","fixation","","","",""
"1536","img/0_120.png","74","image-keyboard-response","387","502736","0.0-6.0-1.190","DIGA","1","m","rechts","58","","","object","j","0","true"
"null","<div style=""font-size:60px;"">+</div>","null","html-keyboard-response","388","503242","0.0-6.0-0.191","DIGA","1","m","rechts","58","","fixation","","","",""
"2347","img/0_270.png","70","image-keyboard-response","389","505589","0.0-6.0-1.191","DIGA","1","m","rechts","58","","","object","f","0","true"
"null","<div style=""font-size:60px;"">+</div>","null","html-keyboard-response","390","505993","0.0-6.0-0.192","DIGA","1","m","rechts","58","","fixation","","","",""
"2171","img/60_330.png","74","image-keyboard-response","391","508165","0.0-6.0-1.192","DIGA","1","m","rechts","58","","","object","j","60","true"
"null","<div style=""font-size:60px;"">+</div>","null","html-keyboard-response","392","508570","0.0-6.0-0.193","DIGA","1","m","rechts","58","","fixation","","","",""
"1643","img/0_210.png","70","image-keyboard-response","393","510213","0.0-6.0-1.193","DIGA","1","m","rechts","58","","","object","f","0","true"
"null","<div style=""font-size:60px;"">+</div>","null","html-keyboard-response","394","510618","0.0-6.0-0.194","DIGA","1","m","rechts","58","","fixation","","","",""
"2306","img/120_90.png","74","image-keyboard-response","395","512926","0.0-6.0-1.194","DIGA","1","m","rechts","58","","","object","f","120","false"
"null","<div style=""font-size:60px;"">+</div>","null","html-keyboard-response","396","513231","0.0-6.0-0.195","DIGA","1","m","rechts","58","","fixation","","","",""
"1830","img/30_240.png","70","image-keyboard-response","397","515062","0.0-6.0-1.195","DIGA","1","m","rechts","58","","","object","f","30","true"
"null","<div style=""font-size:60px;"">+</div>","null","html-keyboard-response","398","515366","0.0-6.0-0.196","DIGA","1","m","rechts","58","","fixation","","","",""
"null","img/L150_180.png","null","image-keyboard-response","399","518370","0.0-6.0-1.196","DIGA","1","m","rechts","58","","","object","j","150","false"
"null","<div style=""font-size:60px;"">+</div>","null","html-keyboard-response","400","518675","0.0-6.0-0.197","DIGA","1","m","rechts","58","","fixation","","","",""
"2870","img/120_30.png","74","image-keyboard-response","401","521545","0.0-6.0-1.197","DIGA","1","m","rechts","58","","","object","f","120","false"
"null","<div style=""font-size:60px;"">+</div>","null","html-keyboard-response","402","521850","0.0-6.0-0.198","DIGA","1","m","rechts","58","","fixation","","","",""
"2529","img/30_180.png","70","image-keyboard-response","403","524380","0.0-6.0-1.198","DIGA","1","m","rechts","58","","","object","f","30","true"
"null","<div style=""font-size:60px;"">+</div>","null","html-keyboard-response","404","524833","0.0-6.0-0.199","DIGA","1","m","rechts","58","","fixation","","","",""
"2088","img/150_300.png","74","image-keyboard-response","405","526923","0.0-6.0-1.199","DIGA","1","m","rechts","58","","","object","j","150","true"
"null","<div style=""font-size:60px;"">+</div>","null","html-keyboard-response","406","527279","0.0-6.0-0.200","DIGA","1","m","rechts","58","","fixation","","","",""
"1989","img/120_330.png","74","image-keyboard-response","407","529268","0.0-6.0-1.200","DIGA","1","m","rechts","58","","","object","j","120","true"
"null","<div style=""font-size:60px;"">+</div>","null","html-keyboard-response","408","529720","0.0-6.0-0.201","DIGA","1","m","rechts","58","","fixation","","","",""
"1859","img/60_30.png","70","image-keyboard-response","409","531579","0.0-6.0-1.201","DIGA","1","m","rechts","58","","","object","f","60","true"
"null","<div style=""font-size:60px;"">+</div>","null","html-keyboard-response","410","532030","0.0-6.0-0.202","DIGA","1","m","rechts","58","","fixation","","","",""
"1588","img/60_90.png","74","image-keyboard-response","411","533619","0.0-6.0-1.202","DIGA","1","m","rechts","58","","","object","j","60","true"
"null","<div style=""font-size:60px;"">+</div>","null","html-keyboard-response","412","534021","0.0-6.0-0.203","DIGA","1","m","rechts","58","","fixation","","","",""
"2823","img/150_240.png","70","image-keyboard-response","413","536846","0.0-6.0-1.203","DIGA","1","m","rechts","58","","","object","j","150","false"
"null","<div style=""font-size:60px;"">+</div>","null","html-keyboard-response","414","537249","0.0-6.0-0.204","DIGA","1","m","rechts","58","","fixation","","","",""
"1444","img/0_30.png","74","image-keyboard-response","415","538693","0.0-6.0-1.204","DIGA","1","m","rechts","58","","","object","j","0","true"
"null","<div style=""font-size:60px;"">+</div>","null","html-keyboard-response","416","538995","0.0-6.0-0.205","DIGA","1","m","rechts","58","","fixation","","","",""
"1336","img/0_240.png","70","image-keyboard-response","417","540332","0.0-6.0-1.205","DIGA","1","m","rechts","58","","","object","f","0","true"
"null","<div style=""font-size:60px;"">+</div>","null","html-keyboard-response","418","540683","0.0-6.0-0.206","DIGA","1","m","rechts","58","","fixation","","","",""
"1897","img/30_90.png","74","image-keyboard-response","419","542581","0.0-6.0-1.206","DIGA","1","m","rechts","58","","","object","j","30","true"
"null","<div style=""font-size:60px;"">+</div>","null","html-keyboard-response","420","543087","0.0-6.0-0.207","DIGA","1","m","rechts","58","","fixation","","","",""
"2099","img/150_120.png","70","image-keyboard-response","421","545186","0.0-6.0-1.207","DIGA","1","m","rechts","58","","","object","f","150","true"
"15327","<p>Du hast in 82% der Versuche korrekt entschieden.</p><p>Deine durchschnittliche Reaktionszeit war  2006ms.</p><p>Dr&uuml;cke eine beliebige Taste, um die Session zu beenden. Vielen Dank!</p>","75","html-keyboard-response","422","560514","0.0-7.0","DIGA","1","m","rechts","58","","","","","",""
