"rt","stimulus","key_press","trial_type","trial_index","time_elapsed","internal_node_id","subject","session","sex","handedness","age","responses","test_part","condition","correct_response","angle","correct"
"3895","<p>Mental Rotation Experiment.</p> <p>Dr&uuml;cke eine beliebige Taste, um anzufangen.</p>","71","html-keyboard-response","0","3903","0.0-0.0","DIGA","4","m","rechts","58","","","","","",""
"7360","","","survey-text","1","11265","0.0-1.0","DIGA","4","m","rechts","58","{""Q0"":""DIGA""}","","","","",""
"6451","","","survey-text","2","17717","0.0-2.0","DIGA","4","m","rechts","58","{""Q0"":""4""}","","","","",""
"4485","","","survey-multi-choice","3","22205","0.0-3.0","DIGA","4","m","rechts","58","{""Q0"":""m"",""Q1"":""rechts""}","","","","",""
"3010","","","survey-text","4","25216","0.0-4.0","DIGA","4","m","rechts","58","{""Q0"":""58""}","","","","",""
"209819","<p> Stell dir vor, dass du vor einem runden Tisch stehst, auf dem sich ein blauer Ball am Tischrand befindet. Entlang des Tischrands ist jeweils ein verschieden langer Pfeil. Nun bewegst du dich entlang dieses Pfeils bis an seine Spitze. Wenn du am Ende des Pfeils angekommen bist, schau zur Tischmitte. </p> <img src='img/90_180.png'></img> <br> <p>Entscheide dann, ob der Ball von deiner neuen (vorgestellten) Position links oder rechts von dir liegt.</p> <p>Dr&uuml;cke die <strong>'f'</strong>-Taste f&uuml;r links, die <strong>'j'</strong>-Taste f&uuml;r rechts.</p> <br><p> Das Bild wird jeweils 1 Sekunde lang pr&auml;sentiert. Du hast 3 Sekunden Zeit eine Entscheidung zu treffen.</p>","74","html-keyboard-response","5","235036","0.0-5.0","DIGA","4","m","rechts","58","","","","","",""
"null","<div style=""font-size:60px;"">+</div>","null","html-keyboard-response","6","236544","0.0-6.0-0.0","DIGA","4","m","rechts","58","","fixation","","","",""
"2385","img/90_60.png","74","image-keyboard-response","7","238931","0.0-6.0-1.0","DIGA","4","m","rechts","58","","","self","j","90","true"
"null","<div style=""font-size:60px;"">+</div>","null","html-keyboard-response","8","239437","0.0-6.0-0.1","DIGA","4","m","rechts","58","","fixation","","","",""
"1540","img/L60_180.png","70","image-keyboard-response","9","240977","0.0-6.0-1.1","DIGA","4","m","rechts","58","","","self","f","60","true"
"null","<div style=""font-size:60px;"">+</div>","null","html-keyboard-response","10","241334","0.0-6.0-0.2","DIGA","4","m","rechts","58","","fixation","","","",""
"1503","img/60_30.png","74","image-keyboard-response","11","242837","0.0-6.0-1.2","DIGA","4","m","rechts","58","","","self","j","60","true"
"null","<div style=""font-size:60px;"">+</div>","null","html-keyboard-response","12","243242","0.0-6.0-0.3","DIGA","4","m","rechts","58","","fixation","","","",""
"1506","img/150_300.png","74","image-keyboard-response","13","244749","0.0-6.0-1.3","DIGA","4","m","rechts","58","","","self","j","150","true"
"null","<div style=""font-size:60px;"">+</div>","null","html-keyboard-response","14","245151","0.0-6.0-0.4","DIGA","4","m","rechts","58","","fixation","","","",""
"1527","img/L90_180.png","70","image-keyboard-response","15","246679","0.0-6.0-1.4","DIGA","4","m","rechts","58","","","self","f","90","true"
"null","<div style=""font-size:60px;"">+</div>","null","html-keyboard-response","16","246984","0.0-6.0-0.5","DIGA","4","m","rechts","58","","fixation","","","",""
"1375","img/120_150.png","70","image-keyboard-response","17","248360","0.0-6.0-1.5","DIGA","4","m","rechts","58","","","self","f","120","true"
"null","<div style=""font-size:60px;"">+</div>","null","html-keyboard-response","18","248664","0.0-6.0-0.6","DIGA","4","m","rechts","58","","fixation","","","",""
"1538","img/120_330.png","70","image-keyboard-response","19","250203","0.0-6.0-1.6","DIGA","4","m","rechts","58","","","self","f","120","true"
"null","<div style=""font-size:60px;"">+</div>","null","html-keyboard-response","20","250557","0.0-6.0-0.7","DIGA","4","m","rechts","58","","fixation","","","",""
"1589","img/150_90.png","70","image-keyboard-response","21","252146","0.0-6.0-1.7","DIGA","4","m","rechts","58","","","self","f","150","true"
"null","<div style=""font-size:60px;"">+</div>","null","html-keyboard-response","22","252502","0.0-6.0-0.8","DIGA","4","m","rechts","58","","fixation","","","",""
"1394","img/60_180.png","74","image-keyboard-response","23","253896","0.0-6.0-1.8","DIGA","4","m","rechts","58","","","self","j","60","true"
"null","<div style=""font-size:60px;"">+</div>","null","html-keyboard-response","24","254401","0.0-6.0-0.9","DIGA","4","m","rechts","58","","fixation","","","",""
"1119","img/0_120.png","74","image-keyboard-response","25","255520","0.0-6.0-1.9","DIGA","4","m","rechts","58","","","self","j","0","true"
"null","<div style=""font-size:60px;"">+</div>","null","html-keyboard-response","26","255923","0.0-6.0-0.10","DIGA","4","m","rechts","58","","fixation","","","",""
"1201","img/0_150.png","74","image-keyboard-response","27","257125","0.0-6.0-1.10","DIGA","4","m","rechts","58","","","self","j","0","true"
"null","<div style=""font-size:60px;"">+</div>","null","html-keyboard-response","28","257579","0.0-6.0-0.11","DIGA","4","m","rechts","58","","fixation","","","",""
"1348","img/L120_180.png","70","image-keyboard-response","29","258928","0.0-6.0-1.11","DIGA","4","m","rechts","58","","","self","f","120","true"
"null","<div style=""font-size:60px;"">+</div>","null","html-keyboard-response","30","259330","0.0-6.0-0.12","DIGA","4","m","rechts","58","","fixation","","","",""
"1527","img/30_120.png","74","image-keyboard-response","31","260858","0.0-6.0-1.12","DIGA","4","m","rechts","58","","","self","j","30","true"
"null","<div style=""font-size:60px;"">+</div>","null","html-keyboard-response","32","261260","0.0-6.0-0.13","DIGA","4","m","rechts","58","","fixation","","","",""
"1304","img/90_180.png","74","image-keyboard-response","33","262565","0.0-6.0-1.13","DIGA","4","m","rechts","58","","","self","j","90","true"
"null","<div style=""font-size:60px;"">+</div>","null","html-keyboard-response","34","263070","0.0-6.0-0.14","DIGA","4","m","rechts","58","","fixation","","","",""
"1301","img/0_240.png","70","image-keyboard-response","35","264371","0.0-6.0-1.14","DIGA","4","m","rechts","58","","","self","f","0","true"
"null","<div style=""font-size:60px;"">+</div>","null","html-keyboard-response","36","264724","0.0-6.0-0.15","DIGA","4","m","rechts","58","","fixation","","","",""
"1345","img/30_270.png","74","image-keyboard-response","37","266069","0.0-6.0-1.15","DIGA","4","m","rechts","58","","","self","f","30","false"
"null","<div style=""font-size:60px;"">+</div>","null","html-keyboard-response","38","266574","0.0-6.0-0.16","DIGA","4","m","rechts","58","","fixation","","","",""
"1291","img/90_330.png","70","image-keyboard-response","39","267867","0.0-6.0-1.16","DIGA","4","m","rechts","58","","","self","f","90","true"
"null","<div style=""font-size:60px;"">+</div>","null","html-keyboard-response","40","268368","0.0-6.0-0.17","DIGA","4","m","rechts","58","","fixation","","","",""
"1311","img/30_180.png","74","image-keyboard-response","41","269679","0.0-6.0-1.17","DIGA","4","m","rechts","58","","","self","j","30","true"
"null","<div style=""font-size:60px;"">+</div>","null","html-keyboard-response","42","270085","0.0-6.0-0.18","DIGA","4","m","rechts","58","","fixation","","","",""
"1447","img/150_120.png","70","image-keyboard-response","43","271532","0.0-6.0-1.18","DIGA","4","m","rechts","58","","","self","f","150","true"
"null","<div style=""font-size:60px;"">+</div>","null","html-keyboard-response","44","272037","0.0-6.0-0.19","DIGA","4","m","rechts","58","","fixation","","","",""
"1616","img/30_60.png","74","image-keyboard-response","45","273654","0.0-6.0-1.19","DIGA","4","m","rechts","58","","","self","j","30","true"
"null","<div style=""font-size:60px;"">+</div>","null","html-keyboard-response","46","274059","0.0-6.0-0.20","DIGA","4","m","rechts","58","","fixation","","","",""
"1212","img/0_270.png","70","image-keyboard-response","47","275272","0.0-6.0-1.20","DIGA","4","m","rechts","58","","","self","f","0","true"
"null","<div style=""font-size:60px;"">+</div>","null","html-keyboard-response","48","275625","0.0-6.0-0.21","DIGA","4","m","rechts","58","","fixation","","","",""
"1241","img/0_30.png","74","image-keyboard-response","49","276867","0.0-6.0-1.21","DIGA","4","m","rechts","58","","","self","j","0","true"
"null","<div style=""font-size:60px;"">+</div>","null","html-keyboard-response","50","277222","0.0-6.0-0.22","DIGA","4","m","rechts","58","","fixation","","","",""
"1417","img/90_210.png","74","image-keyboard-response","51","278640","0.0-6.0-1.22","DIGA","4","m","rechts","58","","","self","j","90","true"
"null","<div style=""font-size:60px;"">+</div>","null","html-keyboard-response","52","278945","0.0-6.0-0.23","DIGA","4","m","rechts","58","","fixation","","","",""
"1538","img/150_60.png","70","image-keyboard-response","53","280485","0.0-6.0-1.23","DIGA","4","m","rechts","58","","","self","f","150","true"
"null","<div style=""font-size:60px;"">+</div>","null","html-keyboard-response","54","280790","0.0-6.0-0.24","DIGA","4","m","rechts","58","","fixation","","","",""
"1545","img/60_270.png","70","image-keyboard-response","55","282336","0.0-6.0-1.24","DIGA","4","m","rechts","58","","","self","f","60","true"
"null","<div style=""font-size:60px;"">+</div>","null","html-keyboard-response","56","282690","0.0-6.0-0.25","DIGA","4","m","rechts","58","","fixation","","","",""
"1471","img/120_270.png","74","image-keyboard-response","57","284161","0.0-6.0-1.25","DIGA","4","m","rechts","58","","","self","j","120","true"
"null","<div style=""font-size:60px;"">+</div>","null","html-keyboard-response","58","284666","0.0-6.0-0.26","DIGA","4","m","rechts","58","","fixation","","","",""
"1759","img/90_30.png","74","image-keyboard-response","59","286426","0.0-6.0-1.26","DIGA","4","m","rechts","58","","","self","j","90","true"
"null","<div style=""font-size:60px;"">+</div>","null","html-keyboard-response","60","286728","0.0-6.0-0.27","DIGA","4","m","rechts","58","","fixation","","","",""
"1410","img/60_150.png","70","image-keyboard-response","61","288139","0.0-6.0-1.27","DIGA","4","m","rechts","58","","","self","f","60","true"
"null","<div style=""font-size:60px;"">+</div>","null","html-keyboard-response","62","288493","0.0-6.0-0.28","DIGA","4","m","rechts","58","","fixation","","","",""
"1265","img/120_210.png","74","image-keyboard-response","63","289759","0.0-6.0-1.28","DIGA","4","m","rechts","58","","","self","j","120","true"
"null","<div style=""font-size:60px;"">+</div>","null","html-keyboard-response","64","290113","0.0-6.0-0.29","DIGA","4","m","rechts","58","","fixation","","","",""
"1393","img/150_180.png","74","image-keyboard-response","65","291507","0.0-6.0-1.29","DIGA","4","m","rechts","58","","","self","j","150","true"
"null","<div style=""font-size:60px;"">+</div>","null","html-keyboard-response","66","291962","0.0-6.0-0.30","DIGA","4","m","rechts","58","","fixation","","","",""
"1423","img/60_90.png","70","image-keyboard-response","67","293386","0.0-6.0-1.30","DIGA","4","m","rechts","58","","","self","j","60","false"
"null","<div style=""font-size:60px;"">+</div>","null","html-keyboard-response","68","293741","0.0-6.0-0.31","DIGA","4","m","rechts","58","","fixation","","","",""
"1452","img/120_30.png","70","image-keyboard-response","69","295198","0.0-6.0-1.31","DIGA","4","m","rechts","58","","","self","j","120","false"
"null","<div style=""font-size:60px;"">+</div>","null","html-keyboard-response","70","295603","0.0-6.0-0.32","DIGA","4","m","rechts","58","","fixation","","","",""
"1501","img/0_300.png","70","image-keyboard-response","71","297104","0.0-6.0-1.32","DIGA","4","m","rechts","58","","","self","f","0","true"
"null","<div style=""font-size:60px;"">+</div>","null","html-keyboard-response","72","297459","0.0-6.0-0.33","DIGA","4","m","rechts","58","","fixation","","","",""
"1402","img/90_300.png","70","image-keyboard-response","73","298861","0.0-6.0-1.33","DIGA","4","m","rechts","58","","","self","f","90","true"
"null","<div style=""font-size:60px;"">+</div>","null","html-keyboard-response","74","299266","0.0-6.0-0.34","DIGA","4","m","rechts","58","","fixation","","","",""
"1555","img/150_270.png","74","image-keyboard-response","75","300822","0.0-6.0-1.34","DIGA","4","m","rechts","58","","","self","j","150","true"
"null","<div style=""font-size:60px;"">+</div>","null","html-keyboard-response","76","301125","0.0-6.0-0.35","DIGA","4","m","rechts","58","","fixation","","","",""
"1398","img/30_90.png","74","image-keyboard-response","77","302524","0.0-6.0-1.35","DIGA","4","m","rechts","58","","","self","j","30","true"
"null","<div style=""font-size:60px;"">+</div>","null","html-keyboard-response","78","303029","0.0-6.0-0.36","DIGA","4","m","rechts","58","","fixation","","","",""
"1239","img/0_60.png","74","image-keyboard-response","79","304269","0.0-6.0-1.36","DIGA","4","m","rechts","58","","","self","j","0","true"
"null","<div style=""font-size:60px;"">+</div>","null","html-keyboard-response","80","304674","0.0-6.0-0.37","DIGA","4","m","rechts","58","","fixation","","","",""
"1344","img/120_180.png","74","image-keyboard-response","81","306019","0.0-6.0-1.37","DIGA","4","m","rechts","58","","","self","j","120","true"
"null","<div style=""font-size:60px;"">+</div>","null","html-keyboard-response","82","306324","0.0-6.0-0.38","DIGA","4","m","rechts","58","","fixation","","","",""
"1435","img/L150_180.png","70","image-keyboard-response","83","307759","0.0-6.0-1.38","DIGA","4","m","rechts","58","","","self","f","150","true"
"null","<div style=""font-size:60px;"">+</div>","null","html-keyboard-response","84","308114","0.0-6.0-0.39","DIGA","4","m","rechts","58","","fixation","","","",""
"1439","img/90_150.png","70","image-keyboard-response","85","309554","0.0-6.0-1.39","DIGA","4","m","rechts","58","","","self","f","90","true"
"null","<div style=""font-size:60px;"">+</div>","null","html-keyboard-response","86","309856","0.0-6.0-0.40","DIGA","4","m","rechts","58","","fixation","","","",""
"1454","img/0_90.png","74","image-keyboard-response","87","311311","0.0-6.0-1.40","DIGA","4","m","rechts","58","","","self","j","0","true"
"null","<div style=""font-size:60px;"">+</div>","null","html-keyboard-response","88","311818","0.0-6.0-0.41","DIGA","4","m","rechts","58","","fixation","","","",""
"1385","img/L30_180.png","70","image-keyboard-response","89","313204","0.0-6.0-1.41","DIGA","4","m","rechts","58","","","self","f","30","true"
"null","<div style=""font-size:60px;"">+</div>","null","html-keyboard-response","90","313661","0.0-6.0-0.42","DIGA","4","m","rechts","58","","fixation","","","",""
"1509","img/0_330.png","70","image-keyboard-response","91","315170","0.0-6.0-1.42","DIGA","4","m","rechts","58","","","self","f","0","true"
"null","<div style=""font-size:60px;"">+</div>","null","html-keyboard-response","92","315474","0.0-6.0-0.43","DIGA","4","m","rechts","58","","fixation","","","",""
"1412","img/30_300.png","70","image-keyboard-response","93","316887","0.0-6.0-1.43","DIGA","4","m","rechts","58","","","self","f","30","true"
"null","<div style=""font-size:60px;"">+</div>","null","html-keyboard-response","94","317191","0.0-6.0-0.44","DIGA","4","m","rechts","58","","fixation","","","",""
"1452","img/30_240.png","70","image-keyboard-response","95","318643","0.0-6.0-1.44","DIGA","4","m","rechts","58","","","self","f","30","true"
"null","<div style=""font-size:60px;"">+</div>","null","html-keyboard-response","96","319147","0.0-6.0-0.45","DIGA","4","m","rechts","58","","fixation","","","",""
"1376","img/90_240.png","74","image-keyboard-response","97","320524","0.0-6.0-1.45","DIGA","4","m","rechts","58","","","self","j","90","true"
"null","<div style=""font-size:60px;"">+</div>","null","html-keyboard-response","98","320876","0.0-6.0-0.46","DIGA","4","m","rechts","58","","fixation","","","",""
"1380","img/60_330.png","70","image-keyboard-response","99","322259","0.0-6.0-1.46","DIGA","4","m","rechts","58","","","self","f","60","true"
"null","<div style=""font-size:60px;"">+</div>","null","html-keyboard-response","100","322563","0.0-6.0-0.47","DIGA","4","m","rechts","58","","fixation","","","",""
"1588","img/60_210.png","74","image-keyboard-response","101","324152","0.0-6.0-1.47","DIGA","4","m","rechts","58","","","self","j","60","true"
"null","<div style=""font-size:60px;"">+</div>","null","html-keyboard-response","102","324456","0.0-6.0-0.48","DIGA","4","m","rechts","58","","fixation","","","",""
"1497","img/120_90.png","70","image-keyboard-response","103","325954","0.0-6.0-1.48","DIGA","4","m","rechts","58","","","self","f","120","true"
"null","<div style=""font-size:60px;"">+</div>","null","html-keyboard-response","104","326456","0.0-6.0-0.49","DIGA","4","m","rechts","58","","fixation","","","",""
"1686","img/90_120.png","70","image-keyboard-response","105","328142","0.0-6.0-1.49","DIGA","4","m","rechts","58","","","self","f","90","true"
"null","<div style=""font-size:60px;"">+</div>","null","html-keyboard-response","106","328596","0.0-6.0-0.50","DIGA","4","m","rechts","58","","fixation","","","",""
"1563","img/0_210.png","70","image-keyboard-response","107","330160","0.0-6.0-1.50","DIGA","4","m","rechts","58","","","self","f","0","true"
"null","<div style=""font-size:60px;"">+</div>","null","html-keyboard-response","108","330666","0.0-6.0-0.51","DIGA","4","m","rechts","58","","fixation","","","",""
"1420","img/150_240.png","74","image-keyboard-response","109","332087","0.0-6.0-1.51","DIGA","4","m","rechts","58","","","self","j","150","true"
"null","<div style=""font-size:60px;"">+</div>","null","html-keyboard-response","110","332391","0.0-6.0-0.52","DIGA","4","m","rechts","58","","fixation","","","",""
"1205","img/60_150.png","70","image-keyboard-response","111","333597","0.0-6.0-1.52","DIGA","4","m","rechts","58","","","self","f","60","true"
"null","<div style=""font-size:60px;"">+</div>","null","html-keyboard-response","112","334002","0.0-6.0-0.53","DIGA","4","m","rechts","58","","fixation","","","",""
"1449","img/60_90.png","74","image-keyboard-response","113","335452","0.0-6.0-1.53","DIGA","4","m","rechts","58","","","self","j","60","true"
"null","<div style=""font-size:60px;"">+</div>","null","html-keyboard-response","114","335908","0.0-6.0-0.54","DIGA","4","m","rechts","58","","fixation","","","",""
"1389","img/30_180.png","74","image-keyboard-response","115","337298","0.0-6.0-1.54","DIGA","4","m","rechts","58","","","self","j","30","true"
"null","<div style=""font-size:60px;"">+</div>","null","html-keyboard-response","116","337602","0.0-6.0-0.55","DIGA","4","m","rechts","58","","fixation","","","",""
"1474","img/90_60.png","74","image-keyboard-response","117","339077","0.0-6.0-1.55","DIGA","4","m","rechts","58","","","self","j","90","true"
"null","<div style=""font-size:60px;"">+</div>","null","html-keyboard-response","118","339583","0.0-6.0-0.56","DIGA","4","m","rechts","58","","fixation","","","",""
"1294","img/60_270.png","70","image-keyboard-response","119","340877","0.0-6.0-1.56","DIGA","4","m","rechts","58","","","self","f","60","true"
"null","<div style=""font-size:60px;"">+</div>","null","html-keyboard-response","120","341233","0.0-6.0-0.57","DIGA","4","m","rechts","58","","fixation","","","",""
"1269","img/0_270.png","70","image-keyboard-response","121","342503","0.0-6.0-1.57","DIGA","4","m","rechts","58","","","self","f","0","true"
"null","<div style=""font-size:60px;"">+</div>","null","html-keyboard-response","122","343007","0.0-6.0-0.58","DIGA","4","m","rechts","58","","fixation","","","",""
"1430","img/120_90.png","70","image-keyboard-response","123","344438","0.0-6.0-1.58","DIGA","4","m","rechts","58","","","self","f","120","true"
"null","<div style=""font-size:60px;"">+</div>","null","html-keyboard-response","124","344841","0.0-6.0-0.59","DIGA","4","m","rechts","58","","fixation","","","",""
"1263","img/90_330.png","70","image-keyboard-response","125","346104","0.0-6.0-1.59","DIGA","4","m","rechts","58","","","self","f","90","true"
"null","<div style=""font-size:60px;"">+</div>","null","html-keyboard-response","126","346459","0.0-6.0-0.60","DIGA","4","m","rechts","58","","fixation","","","",""
"1990","img/150_60.png","70","image-keyboard-response","127","348450","0.0-6.0-1.60","DIGA","4","m","rechts","58","","","self","f","150","true"
"null","<div style=""font-size:60px;"">+</div>","null","html-keyboard-response","128","348854","0.0-6.0-0.61","DIGA","4","m","rechts","58","","fixation","","","",""
"1488","img/90_180.png","74","image-keyboard-response","129","350343","0.0-6.0-1.61","DIGA","4","m","rechts","58","","","self","j","90","true"
"null","<div style=""font-size:60px;"">+</div>","null","html-keyboard-response","130","350849","0.0-6.0-0.62","DIGA","4","m","rechts","58","","fixation","","","",""
"1525","img/150_300.png","74","image-keyboard-response","131","352375","0.0-6.0-1.62","DIGA","4","m","rechts","58","","","self","j","150","true"
"null","<div style=""font-size:60px;"">+</div>","null","html-keyboard-response","132","352780","0.0-6.0-0.63","DIGA","4","m","rechts","58","","fixation","","","",""
"1400","img/120_180.png","74","image-keyboard-response","133","354180","0.0-6.0-1.63","DIGA","4","m","rechts","58","","","self","j","120","true"
"null","<div style=""font-size:60px;"">+</div>","null","html-keyboard-response","134","354536","0.0-6.0-0.64","DIGA","4","m","rechts","58","","fixation","","","",""
"1134","img/L120_180.png","70","image-keyboard-response","135","355670","0.0-6.0-1.64","DIGA","4","m","rechts","58","","","self","f","120","true"
"null","<div style=""font-size:60px;"">+</div>","null","html-keyboard-response","136","356024","0.0-6.0-0.65","DIGA","4","m","rechts","58","","fixation","","","",""
"1449","img/0_150.png","74","image-keyboard-response","137","357475","0.0-6.0-1.65","DIGA","4","m","rechts","58","","","self","j","0","true"
"null","<div style=""font-size:60px;"">+</div>","null","html-keyboard-response","138","357877","0.0-6.0-0.66","DIGA","4","m","rechts","58","","fixation","","","",""
"1456","img/120_330.png","70","image-keyboard-response","139","359334","0.0-6.0-1.66","DIGA","4","m","rechts","58","","","self","f","120","true"
"null","<div style=""font-size:60px;"">+</div>","null","html-keyboard-response","140","359840","0.0-6.0-0.67","DIGA","4","m","rechts","58","","fixation","","","",""
"1466","img/0_330.png","70","image-keyboard-response","141","361306","0.0-6.0-1.67","DIGA","4","m","rechts","58","","","self","f","0","true"
"null","<div style=""font-size:60px;"">+</div>","null","html-keyboard-response","142","361662","0.0-6.0-0.68","DIGA","4","m","rechts","58","","fixation","","","",""
"1409","img/150_120.png","70","image-keyboard-response","143","363071","0.0-6.0-1.68","DIGA","4","m","rechts","58","","","self","f","150","true"
"null","<div style=""font-size:60px;"">+</div>","null","html-keyboard-response","144","363474","0.0-6.0-0.69","DIGA","4","m","rechts","58","","fixation","","","",""
"1469","img/30_60.png","74","image-keyboard-response","145","364943","0.0-6.0-1.69","DIGA","4","m","rechts","58","","","self","j","30","true"
"null","<div style=""font-size:60px;"">+</div>","null","html-keyboard-response","146","365248","0.0-6.0-0.70","DIGA","4","m","rechts","58","","fixation","","","",""
"1664","img/30_120.png","74","image-keyboard-response","147","366913","0.0-6.0-1.70","DIGA","4","m","rechts","58","","","self","j","30","true"
"null","<div style=""font-size:60px;"">+</div>","null","html-keyboard-response","148","367218","0.0-6.0-0.71","DIGA","4","m","rechts","58","","fixation","","","",""
"1421","img/L30_180.png","70","image-keyboard-response","149","368639","0.0-6.0-1.71","DIGA","4","m","rechts","58","","","self","f","30","true"
"null","<div style=""font-size:60px;"">+</div>","null","html-keyboard-response","150","368945","0.0-6.0-0.72","DIGA","4","m","rechts","58","","fixation","","","",""
"1516","img/120_150.png","70","image-keyboard-response","151","370461","0.0-6.0-1.72","DIGA","4","m","rechts","58","","","self","f","120","true"
"null","<div style=""font-size:60px;"">+</div>","null","html-keyboard-response","152","370765","0.0-6.0-0.73","DIGA","4","m","rechts","58","","fixation","","","",""
"1640","img/90_30.png","74","image-keyboard-response","153","372405","0.0-6.0-1.73","DIGA","4","m","rechts","58","","","self","j","90","true"
"null","<div style=""font-size:60px;"">+</div>","null","html-keyboard-response","154","372759","0.0-6.0-0.74","DIGA","4","m","rechts","58","","fixation","","","",""
"1547","img/30_90.png","74","image-keyboard-response","155","374308","0.0-6.0-1.74","DIGA","4","m","rechts","58","","","self","j","30","true"
"null","<div style=""font-size:60px;"">+</div>","null","html-keyboard-response","156","374812","0.0-6.0-0.75","DIGA","4","m","rechts","58","","fixation","","","",""
"1698","img/150_240.png","74","image-keyboard-response","157","376511","0.0-6.0-1.75","DIGA","4","m","rechts","58","","","self","j","150","true"
"null","<div style=""font-size:60px;"">+</div>","null","html-keyboard-response","158","376817","0.0-6.0-0.76","DIGA","4","m","rechts","58","","fixation","","","",""
"1382","img/0_60.png","74","image-keyboard-response","159","378199","0.0-6.0-1.76","DIGA","4","m","rechts","58","","","self","j","0","true"
"null","<div style=""font-size:60px;"">+</div>","null","html-keyboard-response","160","378703","0.0-6.0-0.77","DIGA","4","m","rechts","58","","fixation","","","",""
"1147","img/0_120.png","74","image-keyboard-response","161","379850","0.0-6.0-1.77","DIGA","4","m","rechts","58","","","self","j","0","true"
"null","<div style=""font-size:60px;"">+</div>","null","html-keyboard-response","162","380255","0.0-6.0-0.78","DIGA","4","m","rechts","58","","fixation","","","",""
"1918","img/120_30.png","74","image-keyboard-response","163","382173","0.0-6.0-1.78","DIGA","4","m","rechts","58","","","self","j","120","true"
"null","<div style=""font-size:60px;"">+</div>","null","html-keyboard-response","164","382579","0.0-6.0-0.79","DIGA","4","m","rechts","58","","fixation","","","",""
"1677","img/0_30.png","74","image-keyboard-response","165","384256","0.0-6.0-1.79","DIGA","4","m","rechts","58","","","self","j","0","true"
"null","<div style=""font-size:60px;"">+</div>","null","html-keyboard-response","166","384761","0.0-6.0-0.80","DIGA","4","m","rechts","58","","fixation","","","",""
"1489","img/150_180.png","74","image-keyboard-response","167","386251","0.0-6.0-1.80","DIGA","4","m","rechts","58","","","self","j","150","true"
"null","<div style=""font-size:60px;"">+</div>","null","html-keyboard-response","168","386755","0.0-6.0-0.81","DIGA","4","m","rechts","58","","fixation","","","",""
"1308","img/90_240.png","74","image-keyboard-response","169","388064","0.0-6.0-1.81","DIGA","4","m","rechts","58","","","self","j","90","true"
"null","<div style=""font-size:60px;"">+</div>","null","html-keyboard-response","170","388569","0.0-6.0-0.82","DIGA","4","m","rechts","58","","fixation","","","",""
"1590","img/120_270.png","74","image-keyboard-response","171","390159","0.0-6.0-1.82","DIGA","4","m","rechts","58","","","self","j","120","true"
"null","<div style=""font-size:60px;"">+</div>","null","html-keyboard-response","172","390510","0.0-6.0-0.83","DIGA","4","m","rechts","58","","fixation","","","",""
"1617","img/L90_180.png","70","image-keyboard-response","173","392128","0.0-6.0-1.83","DIGA","4","m","rechts","58","","","self","f","90","true"
"null","<div style=""font-size:60px;"">+</div>","null","html-keyboard-response","174","392633","0.0-6.0-0.84","DIGA","4","m","rechts","58","","fixation","","","",""
"1622","img/90_120.png","70","image-keyboard-response","175","394255","0.0-6.0-1.84","DIGA","4","m","rechts","58","","","self","f","90","true"
"null","<div style=""font-size:60px;"">+</div>","null","html-keyboard-response","176","394712","0.0-6.0-0.85","DIGA","4","m","rechts","58","","fixation","","","",""
"1331","img/120_210.png","74","image-keyboard-response","177","396043","0.0-6.0-1.85","DIGA","4","m","rechts","58","","","self","j","120","true"
"null","<div style=""font-size:60px;"">+</div>","null","html-keyboard-response","178","396495","0.0-6.0-0.86","DIGA","4","m","rechts","58","","fixation","","","",""
"1373","img/L150_180.png","70","image-keyboard-response","179","397869","0.0-6.0-1.86","DIGA","4","m","rechts","58","","","self","f","150","true"
"null","<div style=""font-size:60px;"">+</div>","null","html-keyboard-response","180","398222","0.0-6.0-0.87","DIGA","4","m","rechts","58","","fixation","","","",""
"1731","img/30_240.png","74","image-keyboard-response","181","399954","0.0-6.0-1.87","DIGA","4","m","rechts","58","","","self","f","30","false"
"null","<div style=""font-size:60px;"">+</div>","null","html-keyboard-response","182","400357","0.0-6.0-0.88","DIGA","4","m","rechts","58","","fixation","","","",""
"1583","img/60_180.png","74","image-keyboard-response","183","401942","0.0-6.0-1.88","DIGA","4","m","rechts","58","","","self","j","60","true"
"null","<div style=""font-size:60px;"">+</div>","null","html-keyboard-response","184","402295","0.0-6.0-0.89","DIGA","4","m","rechts","58","","fixation","","","",""
"1538","img/60_210.png","74","image-keyboard-response","185","403834","0.0-6.0-1.89","DIGA","4","m","rechts","58","","","self","j","60","true"
"null","<div style=""font-size:60px;"">+</div>","null","html-keyboard-response","186","404189","0.0-6.0-0.90","DIGA","4","m","rechts","58","","fixation","","","",""
"1795","img/0_210.png","70","image-keyboard-response","187","405985","0.0-6.0-1.90","DIGA","4","m","rechts","58","","","self","f","0","true"
"null","<div style=""font-size:60px;"">+</div>","null","html-keyboard-response","188","406489","0.0-6.0-0.91","DIGA","4","m","rechts","58","","fixation","","","",""
"1811","img/90_150.png","70","image-keyboard-response","189","408301","0.0-6.0-1.91","DIGA","4","m","rechts","58","","","self","f","90","true"
"null","<div style=""font-size:60px;"">+</div>","null","html-keyboard-response","190","408805","0.0-6.0-0.92","DIGA","4","m","rechts","58","","fixation","","","",""
"1802","img/60_330.png","70","image-keyboard-response","191","410609","0.0-6.0-1.92","DIGA","4","m","rechts","58","","","self","f","60","true"
"null","<div style=""font-size:60px;"">+</div>","null","html-keyboard-response","192","410913","0.0-6.0-0.93","DIGA","4","m","rechts","58","","fixation","","","",""
"1581","img/30_300.png","70","image-keyboard-response","193","412494","0.0-6.0-1.93","DIGA","4","m","rechts","58","","","self","f","30","true"
"null","<div style=""font-size:60px;"">+</div>","null","html-keyboard-response","194","413000","0.0-6.0-0.94","DIGA","4","m","rechts","58","","fixation","","","",""
"1755","img/L60_180.png","70","image-keyboard-response","195","414756","0.0-6.0-1.94","DIGA","4","m","rechts","58","","","self","f","60","true"
"null","<div style=""font-size:60px;"">+</div>","null","html-keyboard-response","196","415112","0.0-6.0-0.95","DIGA","4","m","rechts","58","","fixation","","","",""
"1659","img/0_90.png","74","image-keyboard-response","197","416773","0.0-6.0-1.95","DIGA","4","m","rechts","58","","","self","j","0","true"
"null","<div style=""font-size:60px;"">+</div>","null","html-keyboard-response","198","417077","0.0-6.0-0.96","DIGA","4","m","rechts","58","","fixation","","","",""
"2841","img/90_210.png","74","image-keyboard-response","199","419919","0.0-6.0-1.96","DIGA","4","m","rechts","58","","","self","j","90","true"
"null","<div style=""font-size:60px;"">+</div>","null","html-keyboard-response","200","420373","0.0-6.0-0.97","DIGA","4","m","rechts","58","","fixation","","","",""
"1372","img/0_300.png","70","image-keyboard-response","201","421746","0.0-6.0-1.97","DIGA","4","m","rechts","58","","","self","f","0","true"
"null","<div style=""font-size:60px;"">+</div>","null","html-keyboard-response","202","422052","0.0-6.0-0.98","DIGA","4","m","rechts","58","","fixation","","","",""
"1561","img/150_90.png","70","image-keyboard-response","203","423613","0.0-6.0-1.98","DIGA","4","m","rechts","58","","","self","f","150","true"
"null","<div style=""font-size:60px;"">+</div>","null","html-keyboard-response","204","424119","0.0-6.0-0.99","DIGA","4","m","rechts","58","","fixation","","","",""
"1535","img/90_300.png","70","image-keyboard-response","205","425655","0.0-6.0-1.99","DIGA","4","m","rechts","58","","","self","f","90","true"
"null","<div style=""font-size:60px;"">+</div>","null","html-keyboard-response","206","425957","0.0-6.0-0.100","DIGA","4","m","rechts","58","","fixation","","","",""
"1920","img/0_240.png","70","image-keyboard-response","207","427878","0.0-6.0-1.100","DIGA","4","m","rechts","58","","","self","f","0","true"
"null","<div style=""font-size:60px;"">+</div>","null","html-keyboard-response","208","428282","0.0-6.0-0.101","DIGA","4","m","rechts","58","","fixation","","","",""
"1582","img/30_270.png","70","image-keyboard-response","209","429865","0.0-6.0-1.101","DIGA","4","m","rechts","58","","","self","f","30","true"
"null","<div style=""font-size:60px;"">+</div>","null","html-keyboard-response","210","430219","0.0-6.0-0.102","DIGA","4","m","rechts","58","","fixation","","","",""
"1672","img/150_270.png","74","image-keyboard-response","211","431892","0.0-6.0-1.102","DIGA","4","m","rechts","58","","","self","j","150","true"
"null","<div style=""font-size:60px;"">+</div>","null","html-keyboard-response","212","432347","0.0-6.0-0.103","DIGA","4","m","rechts","58","","fixation","","","",""
"1627","img/60_30.png","74","image-keyboard-response","213","433974","0.0-6.0-1.103","DIGA","4","m","rechts","58","","","self","j","60","true"
"null","<div style=""font-size:60px;"">+</div>","null","html-keyboard-response","214","434328","0.0-6.0-0.104","DIGA","4","m","rechts","58","","fixation","","","",""
"1587","img/90_300.png","70","image-keyboard-response","215","435918","0.0-6.0-1.104","DIGA","4","m","rechts","58","","","self","f","90","true"
"null","<div style=""font-size:60px;"">+</div>","null","html-keyboard-response","216","436322","0.0-6.0-0.105","DIGA","4","m","rechts","58","","fixation","","","",""
"1375","img/0_90.png","74","image-keyboard-response","217","437697","0.0-6.0-1.105","DIGA","4","m","rechts","58","","","self","j","0","true"
"null","<div style=""font-size:60px;"">+</div>","null","html-keyboard-response","218","438152","0.0-6.0-0.106","DIGA","4","m","rechts","58","","fixation","","","",""
"1663","img/30_90.png","74","image-keyboard-response","219","439816","0.0-6.0-1.106","DIGA","4","m","rechts","58","","","self","j","30","true"
"null","<div style=""font-size:60px;"">+</div>","null","html-keyboard-response","220","440118","0.0-6.0-0.107","DIGA","4","m","rechts","58","","fixation","","","",""
"1702","img/150_180.png","74","image-keyboard-response","221","441820","0.0-6.0-1.107","DIGA","4","m","rechts","58","","","self","j","150","true"
"null","<div style=""font-size:60px;"">+</div>","null","html-keyboard-response","222","442274","0.0-6.0-0.108","DIGA","4","m","rechts","58","","fixation","","","",""
"1558","img/150_300.png","74","image-keyboard-response","223","443833","0.0-6.0-1.108","DIGA","4","m","rechts","58","","","self","j","150","true"
"null","<div style=""font-size:60px;"">+</div>","null","html-keyboard-response","224","444138","0.0-6.0-0.109","DIGA","4","m","rechts","58","","fixation","","","",""
"1299","img/0_210.png","70","image-keyboard-response","225","445438","0.0-6.0-1.109","DIGA","4","m","rechts","58","","","self","f","0","true"
"null","<div style=""font-size:60px;"">+</div>","null","html-keyboard-response","226","445744","0.0-6.0-0.110","DIGA","4","m","rechts","58","","fixation","","","",""
"1612","img/120_270.png","74","image-keyboard-response","227","447356","0.0-6.0-1.110","DIGA","4","m","rechts","58","","","self","j","120","true"
"null","<div style=""font-size:60px;"">+</div>","null","html-keyboard-response","228","447811","0.0-6.0-0.111","DIGA","4","m","rechts","58","","fixation","","","",""
"1513","img/120_150.png","70","image-keyboard-response","229","449324","0.0-6.0-1.111","DIGA","4","m","rechts","58","","","self","f","120","true"
"null","<div style=""font-size:60px;"">+</div>","null","html-keyboard-response","230","449729","0.0-6.0-0.112","DIGA","4","m","rechts","58","","fixation","","","",""
"1602","img/0_120.png","74","image-keyboard-response","231","451332","0.0-6.0-1.112","DIGA","4","m","rechts","58","","","self","j","0","true"
"null","<div style=""font-size:60px;"">+</div>","null","html-keyboard-response","232","451836","0.0-6.0-0.113","DIGA","4","m","rechts","58","","fixation","","","",""
"1554","img/60_210.png","74","image-keyboard-response","233","453390","0.0-6.0-1.113","DIGA","4","m","rechts","58","","","self","j","60","true"
"null","<div style=""font-size:60px;"">+</div>","null","html-keyboard-response","234","453844","0.0-6.0-0.114","DIGA","4","m","rechts","58","","fixation","","","",""
"1410","img/90_60.png","74","image-keyboard-response","235","455255","0.0-6.0-1.114","DIGA","4","m","rechts","58","","","self","j","90","true"
"null","<div style=""font-size:60px;"">+</div>","null","html-keyboard-response","236","455660","0.0-6.0-0.115","DIGA","4","m","rechts","58","","fixation","","","",""
"1150","img/30_300.png","70","image-keyboard-response","237","456812","0.0-6.0-1.115","DIGA","4","m","rechts","58","","","self","f","30","true"
"null","<div style=""font-size:60px;"">+</div>","null","html-keyboard-response","238","457114","0.0-6.0-0.116","DIGA","4","m","rechts","58","","fixation","","","",""
"1530","img/60_150.png","70","image-keyboard-response","239","458644","0.0-6.0-1.116","DIGA","4","m","rechts","58","","","self","f","60","true"
"null","<div style=""font-size:60px;"">+</div>","null","html-keyboard-response","240","458948","0.0-6.0-0.117","DIGA","4","m","rechts","58","","fixation","","","",""
"1336","img/0_150.png","74","image-keyboard-response","241","460285","0.0-6.0-1.117","DIGA","4","m","rechts","58","","","self","j","0","true"
"null","<div style=""font-size:60px;"">+</div>","null","html-keyboard-response","242","460740","0.0-6.0-0.118","DIGA","4","m","rechts","58","","fixation","","","",""
"1461","img/90_30.png","74","image-keyboard-response","243","462202","0.0-6.0-1.118","DIGA","4","m","rechts","58","","","self","j","90","true"
"null","<div style=""font-size:60px;"">+</div>","null","html-keyboard-response","244","462506","0.0-6.0-0.119","DIGA","4","m","rechts","58","","fixation","","","",""
"1488","img/0_60.png","74","image-keyboard-response","245","463996","0.0-6.0-1.119","DIGA","4","m","rechts","58","","","self","j","0","true"
"null","<div style=""font-size:60px;"">+</div>","null","html-keyboard-response","246","464299","0.0-6.0-0.120","DIGA","4","m","rechts","58","","fixation","","","",""
"1440","img/90_210.png","74","image-keyboard-response","247","465740","0.0-6.0-1.120","DIGA","4","m","rechts","58","","","self","j","90","true"
"null","<div style=""font-size:60px;"">+</div>","null","html-keyboard-response","248","466095","0.0-6.0-0.121","DIGA","4","m","rechts","58","","fixation","","","",""
"1165","img/30_270.png","70","image-keyboard-response","249","467261","0.0-6.0-1.121","DIGA","4","m","rechts","58","","","self","f","30","true"
"null","<div style=""font-size:60px;"">+</div>","null","html-keyboard-response","250","467564","0.0-6.0-0.122","DIGA","4","m","rechts","58","","fixation","","","",""
"1308","img/30_60.png","74","image-keyboard-response","251","468872","0.0-6.0-1.122","DIGA","4","m","rechts","58","","","self","j","30","true"
"null","<div style=""font-size:60px;"">+</div>","null","html-keyboard-response","252","469326","0.0-6.0-0.123","DIGA","4","m","rechts","58","","fixation","","","",""
"1154","img/60_180.png","74","image-keyboard-response","253","470480","0.0-6.0-1.123","DIGA","4","m","rechts","58","","","self","j","60","true"
"null","<div style=""font-size:60px;"">+</div>","null","html-keyboard-response","254","470834","0.0-6.0-0.124","DIGA","4","m","rechts","58","","fixation","","","",""
"1297","img/L150_180.png","70","image-keyboard-response","255","472131","0.0-6.0-1.124","DIGA","4","m","rechts","58","","","self","f","150","true"
"null","<div style=""font-size:60px;"">+</div>","null","html-keyboard-response","256","472487","0.0-6.0-0.125","DIGA","4","m","rechts","58","","fixation","","","",""
"1524","img/60_30.png","74","image-keyboard-response","257","474011","0.0-6.0-1.125","DIGA","4","m","rechts","58","","","self","j","60","true"
"null","<div style=""font-size:60px;"">+</div>","null","html-keyboard-response","258","474417","0.0-6.0-0.126","DIGA","4","m","rechts","58","","fixation","","","",""
"1250","img/150_60.png","70","image-keyboard-response","259","475667","0.0-6.0-1.126","DIGA","4","m","rechts","58","","","self","f","150","true"
"null","<div style=""font-size:60px;"">+</div>","null","html-keyboard-response","260","475970","0.0-6.0-0.127","DIGA","4","m","rechts","58","","fixation","","","",""
"994","img/150_240.png","74","image-keyboard-response","261","476965","0.0-6.0-1.127","DIGA","4","m","rechts","58","","","self","j","150","true"
"null","<div style=""font-size:60px;"">+</div>","null","html-keyboard-response","262","477466","0.0-6.0-0.128","DIGA","4","m","rechts","58","","fixation","","","",""
"1956","img/120_330.png","70","image-keyboard-response","263","479423","0.0-6.0-1.128","DIGA","4","m","rechts","58","","","self","f","120","true"
"null","<div style=""font-size:60px;"">+</div>","null","html-keyboard-response","264","479778","0.0-6.0-0.129","DIGA","4","m","rechts","58","","fixation","","","",""
"1528","img/150_90.png","70","image-keyboard-response","265","481306","0.0-6.0-1.129","DIGA","4","m","rechts","58","","","self","f","150","true"
"null","<div style=""font-size:60px;"">+</div>","null","html-keyboard-response","266","481757","0.0-6.0-0.130","DIGA","4","m","rechts","58","","fixation","","","",""
"1492","img/0_270.png","70","image-keyboard-response","267","483250","0.0-6.0-1.130","DIGA","4","m","rechts","58","","","self","f","0","true"
"null","<div style=""font-size:60px;"">+</div>","null","html-keyboard-response","268","483605","0.0-6.0-0.131","DIGA","4","m","rechts","58","","fixation","","","",""
"1345","img/120_90.png","70","image-keyboard-response","269","484951","0.0-6.0-1.131","DIGA","4","m","rechts","58","","","self","f","120","true"
"null","<div style=""font-size:60px;"">+</div>","null","html-keyboard-response","270","485355","0.0-6.0-0.132","DIGA","4","m","rechts","58","","fixation","","","",""
"1134","img/90_240.png","74","image-keyboard-response","271","486490","0.0-6.0-1.132","DIGA","4","m","rechts","58","","","self","j","90","true"
"null","<div style=""font-size:60px;"">+</div>","null","html-keyboard-response","272","486894","0.0-6.0-0.133","DIGA","4","m","rechts","58","","fixation","","","",""
"1493","img/150_120.png","70","image-keyboard-response","273","488387","0.0-6.0-1.133","DIGA","4","m","rechts","58","","","self","f","150","true"
"null","<div style=""font-size:60px;"">+</div>","null","html-keyboard-response","274","488842","0.0-6.0-0.134","DIGA","4","m","rechts","58","","fixation","","","",""
"1135","img/90_180.png","74","image-keyboard-response","275","489979","0.0-6.0-1.134","DIGA","4","m","rechts","58","","","self","j","90","true"
"null","<div style=""font-size:60px;"">+</div>","null","html-keyboard-response","276","490482","0.0-6.0-0.135","DIGA","4","m","rechts","58","","fixation","","","",""
"1082","img/0_30.png","74","image-keyboard-response","277","491565","0.0-6.0-1.135","DIGA","4","m","rechts","58","","","self","j","0","true"
"null","<div style=""font-size:60px;"">+</div>","null","html-keyboard-response","278","492070","0.0-6.0-0.136","DIGA","4","m","rechts","58","","fixation","","","",""
"1138","img/120_180.png","74","image-keyboard-response","279","493208","0.0-6.0-1.136","DIGA","4","m","rechts","58","","","self","j","120","true"
"null","<div style=""font-size:60px;"">+</div>","null","html-keyboard-response","280","493562","0.0-6.0-0.137","DIGA","4","m","rechts","58","","fixation","","","",""
"1200","img/0_300.png","70","image-keyboard-response","281","494763","0.0-6.0-1.137","DIGA","4","m","rechts","58","","","self","f","0","true"
"null","<div style=""font-size:60px;"">+</div>","null","html-keyboard-response","282","495217","0.0-6.0-0.138","DIGA","4","m","rechts","58","","fixation","","","",""
"1351","img/L120_180.png","70","image-keyboard-response","283","496569","0.0-6.0-1.138","DIGA","4","m","rechts","58","","","self","f","120","true"
"null","<div style=""font-size:60px;"">+</div>","null","html-keyboard-response","284","497025","0.0-6.0-0.139","DIGA","4","m","rechts","58","","fixation","","","",""
"1120","img/120_210.png","74","image-keyboard-response","285","498147","0.0-6.0-1.139","DIGA","4","m","rechts","58","","","self","j","120","true"
"null","<div style=""font-size:60px;"">+</div>","null","html-keyboard-response","286","498550","0.0-6.0-0.140","DIGA","4","m","rechts","58","","fixation","","","",""
"1194","img/L30_180.png","70","image-keyboard-response","287","499745","0.0-6.0-1.140","DIGA","4","m","rechts","58","","","self","f","30","true"
"null","<div style=""font-size:60px;"">+</div>","null","html-keyboard-response","288","500050","0.0-6.0-0.141","DIGA","4","m","rechts","58","","fixation","","","",""
"1194","img/30_180.png","74","image-keyboard-response","289","501244","0.0-6.0-1.141","DIGA","4","m","rechts","58","","","self","j","30","true"
"null","<div style=""font-size:60px;"">+</div>","null","html-keyboard-response","290","501699","0.0-6.0-0.142","DIGA","4","m","rechts","58","","fixation","","","",""
"869","img/L90_180.png","70","image-keyboard-response","291","502568","0.0-6.0-1.142","DIGA","4","m","rechts","58","","","self","f","90","true"
"null","<div style=""font-size:60px;"">+</div>","null","html-keyboard-response","292","503070","0.0-6.0-0.143","DIGA","4","m","rechts","58","","fixation","","","",""
"1329","img/120_30.png","70","image-keyboard-response","293","504400","0.0-6.0-1.143","DIGA","4","m","rechts","58","","","self","j","120","false"
"null","<div style=""font-size:60px;"">+</div>","null","html-keyboard-response","294","504802","0.0-6.0-0.144","DIGA","4","m","rechts","58","","fixation","","","",""
"1066","img/150_270.png","74","image-keyboard-response","295","505868","0.0-6.0-1.144","DIGA","4","m","rechts","58","","","self","j","150","true"
"null","<div style=""font-size:60px;"">+</div>","null","html-keyboard-response","296","506172","0.0-6.0-0.145","DIGA","4","m","rechts","58","","fixation","","","",""
"921","img/0_330.png","70","image-keyboard-response","297","507094","0.0-6.0-1.145","DIGA","4","m","rechts","58","","","self","f","0","true"
"null","<div style=""font-size:60px;"">+</div>","null","html-keyboard-response","298","507449","0.0-6.0-0.146","DIGA","4","m","rechts","58","","fixation","","","",""
"1133","img/30_120.png","74","image-keyboard-response","299","508583","0.0-6.0-1.146","DIGA","4","m","rechts","58","","","self","j","30","true"
"null","<div style=""font-size:60px;"">+</div>","null","html-keyboard-response","300","509037","0.0-6.0-0.147","DIGA","4","m","rechts","58","","fixation","","","",""
"1437","img/90_330.png","74","image-keyboard-response","301","510475","0.0-6.0-1.147","DIGA","4","m","rechts","58","","","self","f","90","false"
"null","<div style=""font-size:60px;"">+</div>","null","html-keyboard-response","302","510830","0.0-6.0-0.148","DIGA","4","m","rechts","58","","fixation","","","",""
"2373","img/60_330.png","70","image-keyboard-response","303","513204","0.0-6.0-1.148","DIGA","4","m","rechts","58","","","self","f","60","true"
"null","<div style=""font-size:60px;"">+</div>","null","html-keyboard-response","304","513558","0.0-6.0-0.149","DIGA","4","m","rechts","58","","fixation","","","",""
"1114","img/60_90.png","74","image-keyboard-response","305","514674","0.0-6.0-1.149","DIGA","4","m","rechts","58","","","self","j","60","true"
"null","<div style=""font-size:60px;"">+</div>","null","html-keyboard-response","306","515079","0.0-6.0-0.150","DIGA","4","m","rechts","58","","fixation","","","",""
"1149","img/30_240.png","70","image-keyboard-response","307","516228","0.0-6.0-1.150","DIGA","4","m","rechts","58","","","self","f","30","true"
"null","<div style=""font-size:60px;"">+</div>","null","html-keyboard-response","308","516633","0.0-6.0-0.151","DIGA","4","m","rechts","58","","fixation","","","",""
"1133","img/0_240.png","70","image-keyboard-response","309","517766","0.0-6.0-1.151","DIGA","4","m","rechts","58","","","self","f","0","true"
"null","<div style=""font-size:60px;"">+</div>","null","html-keyboard-response","310","518221","0.0-6.0-0.152","DIGA","4","m","rechts","58","","fixation","","","",""
"1132","img/90_120.png","70","image-keyboard-response","311","519354","0.0-6.0-1.152","DIGA","4","m","rechts","58","","","self","f","90","true"
"null","<div style=""font-size:60px;"">+</div>","null","html-keyboard-response","312","519659","0.0-6.0-0.153","DIGA","4","m","rechts","58","","fixation","","","",""
"1094","img/60_270.png","70","image-keyboard-response","313","520755","0.0-6.0-1.153","DIGA","4","m","rechts","58","","","self","f","60","true"
"null","<div style=""font-size:60px;"">+</div>","null","html-keyboard-response","314","521158","0.0-6.0-0.154","DIGA","4","m","rechts","58","","fixation","","","",""
"1665","img/90_150.png","70","image-keyboard-response","315","522823","0.0-6.0-1.154","DIGA","4","m","rechts","58","","","self","f","90","true"
"null","<div style=""font-size:60px;"">+</div>","null","html-keyboard-response","316","523327","0.0-6.0-0.155","DIGA","4","m","rechts","58","","fixation","","","",""
"1476","img/L60_180.png","70","image-keyboard-response","317","524805","0.0-6.0-1.155","DIGA","4","m","rechts","58","","","self","f","60","true"
"null","<div style=""font-size:60px;"">+</div>","null","html-keyboard-response","318","525107","0.0-6.0-0.156","DIGA","4","m","rechts","58","","fixation","","","",""
"1522","img/90_180.png","74","image-keyboard-response","319","526629","0.0-6.0-1.156","DIGA","4","m","rechts","58","","","self","j","90","true"
"null","<div style=""font-size:60px;"">+</div>","null","html-keyboard-response","320","527084","0.0-6.0-0.157","DIGA","4","m","rechts","58","","fixation","","","",""
"1306","img/0_330.png","70","image-keyboard-response","321","528390","0.0-6.0-1.157","DIGA","4","m","rechts","58","","","self","f","0","true"
"null","<div style=""font-size:60px;"">+</div>","null","html-keyboard-response","322","528696","0.0-6.0-0.158","DIGA","4","m","rechts","58","","fixation","","","",""
"1513","img/L60_180.png","70","image-keyboard-response","323","530209","0.0-6.0-1.158","DIGA","4","m","rechts","58","","","self","f","60","true"
"null","<div style=""font-size:60px;"">+</div>","null","html-keyboard-response","324","530714","0.0-6.0-0.159","DIGA","4","m","rechts","58","","fixation","","","",""
"1706","img/30_270.png","70","image-keyboard-response","325","532422","0.0-6.0-1.159","DIGA","4","m","rechts","58","","","self","f","30","true"
"null","<div style=""font-size:60px;"">+</div>","null","html-keyboard-response","326","532723","0.0-6.0-0.160","DIGA","4","m","rechts","58","","fixation","","","",""
"1599","img/60_180.png","74","image-keyboard-response","327","534323","0.0-6.0-1.160","DIGA","4","m","rechts","58","","","self","j","60","true"
"null","<div style=""font-size:60px;"">+</div>","null","html-keyboard-response","328","534627","0.0-6.0-0.161","DIGA","4","m","rechts","58","","fixation","","","",""
"1429","img/60_210.png","74","image-keyboard-response","329","536057","0.0-6.0-1.161","DIGA","4","m","rechts","58","","","self","j","60","true"
"null","<div style=""font-size:60px;"">+</div>","null","html-keyboard-response","330","536563","0.0-6.0-0.162","DIGA","4","m","rechts","58","","fixation","","","",""
"1618","img/120_270.png","74","image-keyboard-response","331","538181","0.0-6.0-1.162","DIGA","4","m","rechts","58","","","self","j","120","true"
"null","<div style=""font-size:60px;"">+</div>","null","html-keyboard-response","332","538535","0.0-6.0-0.163","DIGA","4","m","rechts","58","","fixation","","","",""
"1497","img/150_180.png","74","image-keyboard-response","333","540034","0.0-6.0-1.163","DIGA","4","m","rechts","58","","","self","j","150","true"
"null","<div style=""font-size:60px;"">+</div>","null","html-keyboard-response","334","540435","0.0-6.0-0.164","DIGA","4","m","rechts","58","","fixation","","","",""
"1438","img/L30_180.png","70","image-keyboard-response","335","541873","0.0-6.0-1.164","DIGA","4","m","rechts","58","","","self","f","30","true"
"null","<div style=""font-size:60px;"">+</div>","null","html-keyboard-response","336","542177","0.0-6.0-0.165","DIGA","4","m","rechts","58","","fixation","","","",""
"1099","img/0_60.png","74","image-keyboard-response","337","543278","0.0-6.0-1.165","DIGA","4","m","rechts","58","","","self","j","0","true"
"null","<div style=""font-size:60px;"">+</div>","null","html-keyboard-response","338","543783","0.0-6.0-0.166","DIGA","4","m","rechts","58","","fixation","","","",""
"1197","img/120_210.png","74","image-keyboard-response","339","544980","0.0-6.0-1.166","DIGA","4","m","rechts","58","","","self","j","120","true"
"null","<div style=""font-size:60px;"">+</div>","null","html-keyboard-response","340","545331","0.0-6.0-0.167","DIGA","4","m","rechts","58","","fixation","","","",""
"1512","img/30_300.png","70","image-keyboard-response","341","546843","0.0-6.0-1.167","DIGA","4","m","rechts","58","","","self","f","30","true"
"null","<div style=""font-size:60px;"">+</div>","null","html-keyboard-response","342","547248","0.0-6.0-0.168","DIGA","4","m","rechts","58","","fixation","","","",""
"790","img/0_150.png","74","image-keyboard-response","343","548038","0.0-6.0-1.168","DIGA","4","m","rechts","58","","","self","j","0","true"
"null","<div style=""font-size:60px;"">+</div>","null","html-keyboard-response","344","548493","0.0-6.0-0.169","DIGA","4","m","rechts","58","","fixation","","","",""
"1228","img/150_120.png","70","image-keyboard-response","345","549721","0.0-6.0-1.169","DIGA","4","m","rechts","58","","","self","f","150","true"
"null","<div style=""font-size:60px;"">+</div>","null","html-keyboard-response","346","550176","0.0-6.0-0.170","DIGA","4","m","rechts","58","","fixation","","","",""
"1145","img/150_90.png","70","image-keyboard-response","347","551322","0.0-6.0-1.170","DIGA","4","m","rechts","58","","","self","f","150","true"
"null","<div style=""font-size:60px;"">+</div>","null","html-keyboard-response","348","551776","0.0-6.0-0.171","DIGA","4","m","rechts","58","","fixation","","","",""
"1258","img/90_60.png","74","image-keyboard-response","349","553034","0.0-6.0-1.171","DIGA","4","m","rechts","58","","","self","j","90","true"
"null","<div style=""font-size:60px;"">+</div>","null","html-keyboard-response","350","553339","0.0-6.0-0.172","DIGA","4","m","rechts","58","","fixation","","","",""
"1137","img/0_270.png","70","image-keyboard-response","351","554476","0.0-6.0-1.172","DIGA","4","m","rechts","58","","","self","f","0","true"
"null","<div style=""font-size:60px;"">+</div>","null","html-keyboard-response","352","554881","0.0-6.0-0.173","DIGA","4","m","rechts","58","","fixation","","","",""
"1014","img/0_120.png","74","image-keyboard-response","353","555895","0.0-6.0-1.173","DIGA","4","m","rechts","58","","","self","j","0","true"
"null","<div style=""font-size:60px;"">+</div>","null","html-keyboard-response","354","556200","0.0-6.0-0.174","DIGA","4","m","rechts","58","","fixation","","","",""
"1499","img/30_90.png","74","image-keyboard-response","355","557699","0.0-6.0-1.174","DIGA","4","m","rechts","58","","","self","j","30","true"
"null","<div style=""font-size:60px;"">+</div>","null","html-keyboard-response","356","558053","0.0-6.0-0.175","DIGA","4","m","rechts","58","","fixation","","","",""
"968","img/L90_180.png","70","image-keyboard-response","357","559021","0.0-6.0-1.175","DIGA","4","m","rechts","58","","","self","f","90","true"
"null","<div style=""font-size:60px;"">+</div>","null","html-keyboard-response","358","559527","0.0-6.0-0.176","DIGA","4","m","rechts","58","","fixation","","","",""
"1130","img/120_30.png","74","image-keyboard-response","359","560657","0.0-6.0-1.176","DIGA","4","m","rechts","58","","","self","j","120","true"
"null","<div style=""font-size:60px;"">+</div>","null","html-keyboard-response","360","561113","0.0-6.0-0.177","DIGA","4","m","rechts","58","","fixation","","","",""
"1075","img/60_90.png","74","image-keyboard-response","361","562189","0.0-6.0-1.177","DIGA","4","m","rechts","58","","","self","j","60","true"
"null","<div style=""font-size:60px;"">+</div>","null","html-keyboard-response","362","562693","0.0-6.0-0.178","DIGA","4","m","rechts","58","","fixation","","","",""
"1011","img/30_60.png","74","image-keyboard-response","363","563704","0.0-6.0-1.178","DIGA","4","m","rechts","58","","","self","j","30","true"
"null","<div style=""font-size:60px;"">+</div>","null","html-keyboard-response","364","564058","0.0-6.0-0.179","DIGA","4","m","rechts","58","","fixation","","","",""
"1516","img/120_180.png","74","image-keyboard-response","365","565575","0.0-6.0-1.179","DIGA","4","m","rechts","58","","","self","j","120","true"
"null","<div style=""font-size:60px;"">+</div>","null","html-keyboard-response","366","565980","0.0-6.0-0.180","DIGA","4","m","rechts","58","","fixation","","","",""
"1586","img/60_30.png","74","image-keyboard-response","367","567567","0.0-6.0-1.180","DIGA","4","m","rechts","58","","","self","j","60","true"
"null","<div style=""font-size:60px;"">+</div>","null","html-keyboard-response","368","567868","0.0-6.0-0.181","DIGA","4","m","rechts","58","","fixation","","","",""
"1373","img/90_300.png","70","image-keyboard-response","369","569243","0.0-6.0-1.181","DIGA","4","m","rechts","58","","","self","f","90","true"
"null","<div style=""font-size:60px;"">+</div>","null","html-keyboard-response","370","569594","0.0-6.0-0.182","DIGA","4","m","rechts","58","","fixation","","","",""
"1239","img/90_210.png","74","image-keyboard-response","371","570834","0.0-6.0-1.182","DIGA","4","m","rechts","58","","","self","j","90","true"
"null","<div style=""font-size:60px;"">+</div>","null","html-keyboard-response","372","571239","0.0-6.0-0.183","DIGA","4","m","rechts","58","","fixation","","","",""
"1084","img/0_90.png","74","image-keyboard-response","373","572324","0.0-6.0-1.183","DIGA","4","m","rechts","58","","","self","j","0","true"
"null","<div style=""font-size:60px;"">+</div>","null","html-keyboard-response","374","572828","0.0-6.0-0.184","DIGA","4","m","rechts","58","","fixation","","","",""
"1007","img/90_150.png","70","image-keyboard-response","375","573836","0.0-6.0-1.184","DIGA","4","m","rechts","58","","","self","f","90","true"
"null","<div style=""font-size:60px;"">+</div>","null","html-keyboard-response","376","574191","0.0-6.0-0.185","DIGA","4","m","rechts","58","","fixation","","","",""
"887","img/90_120.png","70","image-keyboard-response","377","575079","0.0-6.0-1.185","DIGA","4","m","rechts","58","","","self","f","90","true"
"null","<div style=""font-size:60px;"">+</div>","null","html-keyboard-response","378","575433","0.0-6.0-0.186","DIGA","4","m","rechts","58","","fixation","","","",""
"1518","img/60_270.png","70","image-keyboard-response","379","576953","0.0-6.0-1.186","DIGA","4","m","rechts","58","","","self","f","60","true"
"null","<div style=""font-size:60px;"">+</div>","null","html-keyboard-response","380","577308","0.0-6.0-0.187","DIGA","4","m","rechts","58","","fixation","","","",""
"1487","img/150_60.png","70","image-keyboard-response","381","578796","0.0-6.0-1.187","DIGA","4","m","rechts","58","","","self","f","150","true"
"null","<div style=""font-size:60px;"">+</div>","null","html-keyboard-response","382","579151","0.0-6.0-0.188","DIGA","4","m","rechts","58","","fixation","","","",""
"1165","img/L120_180.png","70","image-keyboard-response","383","580317","0.0-6.0-1.188","DIGA","4","m","rechts","58","","","self","f","120","true"
"null","<div style=""font-size:60px;"">+</div>","null","html-keyboard-response","384","580821","0.0-6.0-0.189","DIGA","4","m","rechts","58","","fixation","","","",""
"927","img/90_240.png","74","image-keyboard-response","385","581750","0.0-6.0-1.189","DIGA","4","m","rechts","58","","","self","j","90","true"
"null","<div style=""font-size:60px;"">+</div>","null","html-keyboard-response","386","582205","0.0-6.0-0.190","DIGA","4","m","rechts","58","","fixation","","","",""
"1277","img/L150_180.png","70","image-keyboard-response","387","583482","0.0-6.0-1.190","DIGA","4","m","rechts","58","","","self","f","150","true"
"null","<div style=""font-size:60px;"">+</div>","null","html-keyboard-response","388","583889","0.0-6.0-0.191","DIGA","4","m","rechts","58","","fixation","","","",""
"886","img/0_30.png","74","image-keyboard-response","389","584775","0.0-6.0-1.191","DIGA","4","m","rechts","58","","","self","j","0","true"
"null","<div style=""font-size:60px;"">+</div>","null","html-keyboard-response","390","585179","0.0-6.0-0.192","DIGA","4","m","rechts","58","","fixation","","","",""
"823","img/120_150.png","70","image-keyboard-response","391","586003","0.0-6.0-1.192","DIGA","4","m","rechts","58","","","self","f","120","true"
"null","<div style=""font-size:60px;"">+</div>","null","html-keyboard-response","392","586357","0.0-6.0-0.193","DIGA","4","m","rechts","58","","fixation","","","",""
"1236","img/90_30.png","74","image-keyboard-response","393","587594","0.0-6.0-1.193","DIGA","4","m","rechts","58","","","self","j","90","true"
"null","<div style=""font-size:60px;"">+</div>","null","html-keyboard-response","394","588098","0.0-6.0-0.194","DIGA","4","m","rechts","58","","fixation","","","",""
"2102","img/150_300.png","74","image-keyboard-response","395","590200","0.0-6.0-1.194","DIGA","4","m","rechts","58","","","self","j","150","true"
"null","<div style=""font-size:60px;"">+</div>","null","html-keyboard-response","396","590656","0.0-6.0-0.195","DIGA","4","m","rechts","58","","fixation","","","",""
"1406","img/30_180.png","74","image-keyboard-response","397","592064","0.0-6.0-1.195","DIGA","4","m","rechts","58","","","self","j","30","true"
"null","<div style=""font-size:60px;"">+</div>","null","html-keyboard-response","398","592419","0.0-6.0-0.196","DIGA","4","m","rechts","58","","fixation","","","",""
"1773","img/60_330.png","70","image-keyboard-response","399","594192","0.0-6.0-1.196","DIGA","4","m","rechts","58","","","self","f","60","true"
"null","<div style=""font-size:60px;"">+</div>","null","html-keyboard-response","400","594548","0.0-6.0-0.197","DIGA","4","m","rechts","58","","fixation","","","",""
"2024","img/120_330.png","74","image-keyboard-response","401","596573","0.0-6.0-1.197","DIGA","4","m","rechts","58","","","self","f","120","false"
"null","<div style=""font-size:60px;"">+</div>","null","html-keyboard-response","402","597028","0.0-6.0-0.198","DIGA","4","m","rechts","58","","fixation","","","",""
"1384","img/0_210.png","70","image-keyboard-response","403","598412","0.0-6.0-1.198","DIGA","4","m","rechts","58","","","self","f","0","true"
"null","<div style=""font-size:60px;"">+</div>","null","html-keyboard-response","404","598718","0.0-6.0-0.199","DIGA","4","m","rechts","58","","fixation","","","",""
"1547","img/120_90.png","70","image-keyboard-response","405","600265","0.0-6.0-1.199","DIGA","4","m","rechts","58","","","self","f","120","true"
"null","<div style=""font-size:60px;"">+</div>","null","html-keyboard-response","406","600570","0.0-6.0-0.200","DIGA","4","m","rechts","58","","fixation","","","",""
"1589","img/60_150.png","70","image-keyboard-response","407","602159","0.0-6.0-1.200","DIGA","4","m","rechts","58","","","self","f","60","true"
"null","<div style=""font-size:60px;"">+</div>","null","html-keyboard-response","408","602664","0.0-6.0-0.201","DIGA","4","m","rechts","58","","fixation","","","",""
"1594","img/0_300.png","70","image-keyboard-response","409","604260","0.0-6.0-1.201","DIGA","4","m","rechts","58","","","self","f","0","true"
"null","<div style=""font-size:60px;"">+</div>","null","html-keyboard-response","410","604565","0.0-6.0-0.202","DIGA","4","m","rechts","58","","fixation","","","",""
"1675","img/150_270.png","74","image-keyboard-response","411","606240","0.0-6.0-1.202","DIGA","4","m","rechts","58","","","self","j","150","true"
"null","<div style=""font-size:60px;"">+</div>","null","html-keyboard-response","412","606645","0.0-6.0-0.203","DIGA","4","m","rechts","58","","fixation","","","",""
"1634","img/30_240.png","70","image-keyboard-response","413","608280","0.0-6.0-1.203","DIGA","4","m","rechts","58","","","self","f","30","true"
"null","<div style=""font-size:60px;"">+</div>","null","html-keyboard-response","414","608683","0.0-6.0-0.204","DIGA","4","m","rechts","58","","fixation","","","",""
"1148","img/0_240.png","70","image-keyboard-response","415","609833","0.0-6.0-1.204","DIGA","4","m","rechts","58","","","self","f","0","true"
"null","<div style=""font-size:60px;"">+</div>","null","html-keyboard-response","416","610337","0.0-6.0-0.205","DIGA","4","m","rechts","58","","fixation","","","",""
"1184","img/150_240.png","74","image-keyboard-response","417","611523","0.0-6.0-1.205","DIGA","4","m","rechts","58","","","self","j","150","true"
"null","<div style=""font-size:60px;"">+</div>","null","html-keyboard-response","418","611977","0.0-6.0-0.206","DIGA","4","m","rechts","58","","fixation","","","",""
"1739","img/90_330.png","70","image-keyboard-response","419","613717","0.0-6.0-1.206","DIGA","4","m","rechts","58","","","self","f","90","true"
"null","<div style=""font-size:60px;"">+</div>","null","html-keyboard-response","420","614069","0.0-6.0-0.207","DIGA","4","m","rechts","58","","fixation","","","",""
"1569","img/30_120.png","74","image-keyboard-response","421","615639","0.0-6.0-1.207","DIGA","4","m","rechts","58","","","self","j","30","true"
"28770","<p>Du hast in 94% der Versuche korrekt entschieden.</p><p>Deine durchschnittliche Reaktionszeit war  1422ms.</p><p>Dr&uuml;cke eine beliebige Taste, um die Session zu beenden. Vielen Dank!</p>","71","html-keyboard-response","422","644410","0.0-7.0","DIGA","4","m","rechts","58","","","","","",""
