"rt","stimulus","key_press","trial_type","trial_index","time_elapsed","internal_node_id","subject","session","sex","handedness","age","responses","test_part","condition","correct_response","angle","correct"
"3539","<p>Mental Rotation Experiment.</p> <p>Dr&uuml;cke eine beliebige Taste, um anzufangen.</p>","70","html-keyboard-response","0","3542","0.0-0.0","DIGA","1","m","rechts","58","","","","","",""
"5756","","","survey-text","1","9299","0.0-1.0","DIGA","1","m","rechts","58","{""Q0"":""DIGA""}","","","","",""
"1827","","","survey-text","2","11128","0.0-2.0","DIGA","1","m","rechts","58","{""Q0"":""1""}","","","","",""
"19483","","","survey-multi-choice","3","30613","0.0-3.0","DIGA","1","m","rechts","58","{""Q0"":""m"",""Q1"":""rechts""}","","","","",""
"4099","","","survey-text","4","34713","0.0-4.0","DIGA","1","m","rechts","58","{""Q0"":""58""}","","","","",""
"20218","<p> Stell dir vor, dass du vor einem runden Tisch stehst, auf dem sich ein blauer Ball am Tischrand befindet. Entlang des Tischrands ist jeweils ein verschieden langer Pfeil. Nun bewegst du dich entlang dieses Pfeils bis an seine Spitze. Wenn du am Ende des Pfeils angekommen bist, schau zur Tischmitte. </p> <img src='img/90_180.png'></img> <br> <p>Entscheide dann, ob der Ball von deiner neuen (vorgestellten) Position links oder rechts von dir liegt.</p> <p>Dr&uuml;cke die <strong>'f'</strong>-Taste f&uuml;r links, die <strong>'j'</strong>-Taste f&uuml;r rechts.</p> <br><p> Das Bild wird jeweils 1 Sekunde lang pr&auml;sentiert. Du hast 3 Sekunden Zeit eine Entscheidung zu treffen.</p>","74","html-keyboard-response","5","54932","0.0-5.0","DIGA","1","m","rechts","58","","","","","",""
"null","<div style=""font-size:60px;"">+</div>","null","html-keyboard-response","6","56339","0.0-6.0-0.0","DIGA","1","m","rechts","58","","fixation","","","",""
"2485","img/120_180.png","74","image-keyboard-response","7","58825","0.0-6.0-1.0","DIGA","1","m","rechts","58","","","self","j","120","true"
"null","<div style=""font-size:60px;"">+</div>","null","html-keyboard-response","8","59281","0.0-6.0-0.1","DIGA","1","m","rechts","58","","fixation","","","",""
"2614","img/150_90.png","70","image-keyboard-response","9","61898","0.0-6.0-1.1","DIGA","1","m","rechts","58","","","self","f","150","true"
"null","<div style=""font-size:60px;"">+</div>","null","html-keyboard-response","10","62402","0.0-6.0-0.2","DIGA","1","m","rechts","58","","fixation","","","",""
"2650","img/0_120.png","74","image-keyboard-response","11","65053","0.0-6.0-1.2","DIGA","1","m","rechts","58","","","self","j","0","true"
"null","<div style=""font-size:60px;"">+</div>","null","html-keyboard-response","12","65558","0.0-6.0-0.3","DIGA","1","m","rechts","58","","fixation","","","",""
"1971","img/L60_180.png","70","image-keyboard-response","13","67529","0.0-6.0-1.3","DIGA","1","m","rechts","58","","","self","f","60","true"
"null","<div style=""font-size:60px;"">+</div>","null","html-keyboard-response","14","67983","0.0-6.0-0.4","DIGA","1","m","rechts","58","","fixation","","","",""
"2670","img/30_240.png","74","image-keyboard-response","15","70654","0.0-6.0-1.4","DIGA","1","m","rechts","58","","","self","f","30","false"
"null","<div style=""font-size:60px;"">+</div>","null","html-keyboard-response","16","71060","0.0-6.0-0.5","DIGA","1","m","rechts","58","","fixation","","","",""
"2520","img/60_210.png","74","image-keyboard-response","17","73580","0.0-6.0-1.5","DIGA","1","m","rechts","58","","","self","j","60","true"
"null","<div style=""font-size:60px;"">+</div>","null","html-keyboard-response","18","73933","0.0-6.0-0.6","DIGA","1","m","rechts","58","","fixation","","","",""
"1631","img/90_180.png","74","image-keyboard-response","19","75566","0.0-6.0-1.6","DIGA","1","m","rechts","58","","","self","j","90","true"
"null","<div style=""font-size:60px;"">+</div>","null","html-keyboard-response","20","75871","0.0-6.0-0.7","DIGA","1","m","rechts","58","","fixation","","","",""
"1426","img/0_300.png","70","image-keyboard-response","21","77298","0.0-6.0-1.7","DIGA","1","m","rechts","58","","","self","f","0","true"
"null","<div style=""font-size:60px;"">+</div>","null","html-keyboard-response","22","77805","0.0-6.0-0.8","DIGA","1","m","rechts","58","","fixation","","","",""
"2053","img/150_240.png","74","image-keyboard-response","23","79858","0.0-6.0-1.8","DIGA","1","m","rechts","58","","","self","j","150","true"
"null","<div style=""font-size:60px;"">+</div>","null","html-keyboard-response","24","80364","0.0-6.0-0.9","DIGA","1","m","rechts","58","","fixation","","","",""
"1278","img/0_30.png","74","image-keyboard-response","25","81643","0.0-6.0-1.9","DIGA","1","m","rechts","58","","","self","j","0","true"
"null","<div style=""font-size:60px;"">+</div>","null","html-keyboard-response","26","81996","0.0-6.0-0.10","DIGA","1","m","rechts","58","","fixation","","","",""
"2177","img/60_330.png","70","image-keyboard-response","27","84173","0.0-6.0-1.10","DIGA","1","m","rechts","58","","","self","f","60","true"
"null","<div style=""font-size:60px;"">+</div>","null","html-keyboard-response","28","84579","0.0-6.0-0.11","DIGA","1","m","rechts","58","","fixation","","","",""
"2479","img/30_60.png","74","image-keyboard-response","29","87058","0.0-6.0-1.11","DIGA","1","m","rechts","58","","","self","j","30","true"
"null","<div style=""font-size:60px;"">+</div>","null","html-keyboard-response","30","87463","0.0-6.0-0.12","DIGA","1","m","rechts","58","","fixation","","","",""
"2253","img/90_330.png","70","image-keyboard-response","31","89717","0.0-6.0-1.12","DIGA","1","m","rechts","58","","","self","f","90","true"
"null","<div style=""font-size:60px;"">+</div>","null","html-keyboard-response","32","90069","0.0-6.0-0.13","DIGA","1","m","rechts","58","","fixation","","","",""
"2211","img/120_90.png","74","image-keyboard-response","33","92280","0.0-6.0-1.13","DIGA","1","m","rechts","58","","","self","f","120","false"
"null","<div style=""font-size:60px;"">+</div>","null","html-keyboard-response","34","92681","0.0-6.0-0.14","DIGA","1","m","rechts","58","","fixation","","","",""
"1806","img/90_60.png","74","image-keyboard-response","35","94487","0.0-6.0-1.14","DIGA","1","m","rechts","58","","","self","j","90","true"
"null","<div style=""font-size:60px;"">+</div>","null","html-keyboard-response","36","94938","0.0-6.0-0.15","DIGA","1","m","rechts","58","","fixation","","","",""
"2358","img/L90_180.png","70","image-keyboard-response","37","97297","0.0-6.0-1.15","DIGA","1","m","rechts","58","","","self","f","90","true"
"null","<div style=""font-size:60px;"">+</div>","null","html-keyboard-response","38","97651","0.0-6.0-0.16","DIGA","1","m","rechts","58","","fixation","","","",""
"1912","img/90_150.png","70","image-keyboard-response","39","99563","0.0-6.0-1.16","DIGA","1","m","rechts","58","","","self","f","90","true"
"null","<div style=""font-size:60px;"">+</div>","null","html-keyboard-response","40","99969","0.0-6.0-0.17","DIGA","1","m","rechts","58","","fixation","","","",""
"1912","img/60_30.png","74","image-keyboard-response","41","101881","0.0-6.0-1.17","DIGA","1","m","rechts","58","","","self","j","60","true"
"null","<div style=""font-size:60px;"">+</div>","null","html-keyboard-response","42","102386","0.0-6.0-0.18","DIGA","1","m","rechts","58","","fixation","","","",""
"2569","img/60_270.png","70","image-keyboard-response","43","104955","0.0-6.0-1.18","DIGA","1","m","rechts","58","","","self","f","60","true"
"null","<div style=""font-size:60px;"">+</div>","null","html-keyboard-response","44","105259","0.0-6.0-0.19","DIGA","1","m","rechts","58","","fixation","","","",""
"1767","img/0_60.png","74","image-keyboard-response","45","107027","0.0-6.0-1.19","DIGA","1","m","rechts","58","","","self","j","0","true"
"null","<div style=""font-size:60px;"">+</div>","null","html-keyboard-response","46","107331","0.0-6.0-0.20","DIGA","1","m","rechts","58","","fixation","","","",""
"1902","img/L30_180.png","70","image-keyboard-response","47","109233","0.0-6.0-1.20","DIGA","1","m","rechts","58","","","self","f","30","true"
"null","<div style=""font-size:60px;"">+</div>","null","html-keyboard-response","48","109635","0.0-6.0-0.21","DIGA","1","m","rechts","58","","fixation","","","",""
"2519","img/150_120.png","70","image-keyboard-response","49","112155","0.0-6.0-1.21","DIGA","1","m","rechts","58","","","self","f","150","true"
"null","<div style=""font-size:60px;"">+</div>","null","html-keyboard-response","50","112607","0.0-6.0-0.22","DIGA","1","m","rechts","58","","fixation","","","",""
"1864","img/0_330.png","70","image-keyboard-response","51","114471","0.0-6.0-1.22","DIGA","1","m","rechts","58","","","self","f","0","true"
"null","<div style=""font-size:60px;"">+</div>","null","html-keyboard-response","52","114928","0.0-6.0-0.23","DIGA","1","m","rechts","58","","fixation","","","",""
"2072","img/120_270.png","74","image-keyboard-response","53","117001","0.0-6.0-1.23","DIGA","1","m","rechts","58","","","self","j","120","true"
"null","<div style=""font-size:60px;"">+</div>","null","html-keyboard-response","54","117302","0.0-6.0-0.24","DIGA","1","m","rechts","58","","fixation","","","",""
"1554","img/0_270.png","70","image-keyboard-response","55","118857","0.0-6.0-1.24","DIGA","1","m","rechts","58","","","self","f","0","true"
"null","<div style=""font-size:60px;"">+</div>","null","html-keyboard-response","56","119310","0.0-6.0-0.25","DIGA","1","m","rechts","58","","fixation","","","",""
"1819","img/L120_180.png","70","image-keyboard-response","57","121129","0.0-6.0-1.25","DIGA","1","m","rechts","58","","","self","f","120","true"
"null","<div style=""font-size:60px;"">+</div>","null","html-keyboard-response","58","121531","0.0-6.0-0.26","DIGA","1","m","rechts","58","","fixation","","","",""
"1682","img/90_240.png","74","image-keyboard-response","59","123214","0.0-6.0-1.26","DIGA","1","m","rechts","58","","","self","j","90","true"
"null","<div style=""font-size:60px;"">+</div>","null","html-keyboard-response","60","123565","0.0-6.0-0.27","DIGA","1","m","rechts","58","","fixation","","","",""
"1900","img/90_30.png","74","image-keyboard-response","61","125466","0.0-6.0-1.27","DIGA","1","m","rechts","58","","","self","j","90","true"
"null","<div style=""font-size:60px;"">+</div>","null","html-keyboard-response","62","125817","0.0-6.0-0.28","DIGA","1","m","rechts","58","","fixation","","","",""
"1756","img/60_150.png","70","image-keyboard-response","63","127575","0.0-6.0-1.28","DIGA","1","m","rechts","58","","","self","f","60","true"
"null","<div style=""font-size:60px;"">+</div>","null","html-keyboard-response","64","127931","0.0-6.0-0.29","DIGA","1","m","rechts","58","","fixation","","","",""
"1652","img/90_120.png","70","image-keyboard-response","65","129583","0.0-6.0-1.29","DIGA","1","m","rechts","58","","","self","f","90","true"
"null","<div style=""font-size:60px;"">+</div>","null","html-keyboard-response","66","130039","0.0-6.0-0.30","DIGA","1","m","rechts","58","","fixation","","","",""
"1790","img/30_180.png","74","image-keyboard-response","67","131829","0.0-6.0-1.30","DIGA","1","m","rechts","58","","","self","j","30","true"
"null","<div style=""font-size:60px;"">+</div>","null","html-keyboard-response","68","132130","0.0-6.0-0.31","DIGA","1","m","rechts","58","","fixation","","","",""
"1619","img/120_150.png","70","image-keyboard-response","69","133754","0.0-6.0-1.31","DIGA","1","m","rechts","58","","","self","f","120","true"
"null","<div style=""font-size:60px;"">+</div>","null","html-keyboard-response","70","134260","0.0-6.0-0.32","DIGA","1","m","rechts","58","","fixation","","","",""
"2154","img/120_30.png","74","image-keyboard-response","71","136415","0.0-6.0-1.32","DIGA","1","m","rechts","58","","","self","j","120","true"
"null","<div style=""font-size:60px;"">+</div>","null","html-keyboard-response","72","136869","0.0-6.0-0.33","DIGA","1","m","rechts","58","","fixation","","","",""
"1801","img/120_210.png","74","image-keyboard-response","73","138670","0.0-6.0-1.33","DIGA","1","m","rechts","58","","","self","j","120","true"
"null","<div style=""font-size:60px;"">+</div>","null","html-keyboard-response","74","139026","0.0-6.0-0.34","DIGA","1","m","rechts","58","","fixation","","","",""
"1974","img/150_60.png","70","image-keyboard-response","75","141001","0.0-6.0-1.34","DIGA","1","m","rechts","58","","","self","f","150","true"
"null","<div style=""font-size:60px;"">+</div>","null","html-keyboard-response","76","141407","0.0-6.0-0.35","DIGA","1","m","rechts","58","","fixation","","","",""
"1897","img/150_180.png","74","image-keyboard-response","77","143306","0.0-6.0-1.35","DIGA","1","m","rechts","58","","","self","j","150","true"
"null","<div style=""font-size:60px;"">+</div>","null","html-keyboard-response","78","143810","0.0-6.0-0.36","DIGA","1","m","rechts","58","","fixation","","","",""
"1796","img/30_300.png","70","image-keyboard-response","79","145607","0.0-6.0-1.36","DIGA","1","m","rechts","58","","","self","f","30","true"
"null","<div style=""font-size:60px;"">+</div>","null","html-keyboard-response","80","146108","0.0-6.0-0.37","DIGA","1","m","rechts","58","","fixation","","","",""
"2349","img/150_300.png","74","image-keyboard-response","81","148458","0.0-6.0-1.37","DIGA","1","m","rechts","58","","","self","j","150","true"
"null","<div style=""font-size:60px;"">+</div>","null","html-keyboard-response","82","148860","0.0-6.0-0.38","DIGA","1","m","rechts","58","","fixation","","","",""
"1918","img/60_90.png","74","image-keyboard-response","83","150778","0.0-6.0-1.38","DIGA","1","m","rechts","58","","","self","j","60","true"
"null","<div style=""font-size:60px;"">+</div>","null","html-keyboard-response","84","151181","0.0-6.0-0.39","DIGA","1","m","rechts","58","","fixation","","","",""
"1696","img/0_210.png","70","image-keyboard-response","85","152877","0.0-6.0-1.39","DIGA","1","m","rechts","58","","","self","f","0","true"
"null","<div style=""font-size:60px;"">+</div>","null","html-keyboard-response","86","153184","0.0-6.0-0.40","DIGA","1","m","rechts","58","","fixation","","","",""
"2099","img/L150_180.png","70","image-keyboard-response","87","155283","0.0-6.0-1.40","DIGA","1","m","rechts","58","","","self","f","150","true"
"null","<div style=""font-size:60px;"">+</div>","null","html-keyboard-response","88","155639","0.0-6.0-0.41","DIGA","1","m","rechts","58","","fixation","","","",""
"1559","img/0_240.png","70","image-keyboard-response","89","157198","0.0-6.0-1.41","DIGA","1","m","rechts","58","","","self","f","0","true"
"null","<div style=""font-size:60px;"">+</div>","null","html-keyboard-response","90","157604","0.0-6.0-0.42","DIGA","1","m","rechts","58","","fixation","","","",""
"1876","img/30_270.png","70","image-keyboard-response","91","159481","0.0-6.0-1.42","DIGA","1","m","rechts","58","","","self","f","30","true"
"null","<div style=""font-size:60px;"">+</div>","null","html-keyboard-response","92","159887","0.0-6.0-0.43","DIGA","1","m","rechts","58","","fixation","","","",""
"1678","img/60_180.png","74","image-keyboard-response","93","161566","0.0-6.0-1.43","DIGA","1","m","rechts","58","","","self","j","60","true"
"null","<div style=""font-size:60px;"">+</div>","null","html-keyboard-response","94","162072","0.0-6.0-0.44","DIGA","1","m","rechts","58","","fixation","","","",""
"2204","img/30_90.png","70","image-keyboard-response","95","164277","0.0-6.0-1.44","DIGA","1","m","rechts","58","","","self","j","30","false"
"null","<div style=""font-size:60px;"">+</div>","null","html-keyboard-response","96","164781","0.0-6.0-0.45","DIGA","1","m","rechts","58","","fixation","","","",""
"1770","img/30_120.png","70","image-keyboard-response","97","166552","0.0-6.0-1.45","DIGA","1","m","rechts","58","","","self","j","30","false"
"null","<div style=""font-size:60px;"">+</div>","null","html-keyboard-response","98","167015","0.0-6.0-0.46","DIGA","1","m","rechts","58","","fixation","","","",""
"1491","img/90_210.png","74","image-keyboard-response","99","168506","0.0-6.0-1.46","DIGA","1","m","rechts","58","","","self","j","90","true"
"null","<div style=""font-size:60px;"">+</div>","null","html-keyboard-response","100","168907","0.0-6.0-0.47","DIGA","1","m","rechts","58","","fixation","","","",""
"1076","img/0_90.png","74","image-keyboard-response","101","169984","0.0-6.0-1.47","DIGA","1","m","rechts","58","","","self","j","0","true"
"null","<div style=""font-size:60px;"">+</div>","null","html-keyboard-response","102","170391","0.0-6.0-0.48","DIGA","1","m","rechts","58","","fixation","","","",""
"1906","img/120_330.png","70","image-keyboard-response","103","172298","0.0-6.0-1.48","DIGA","1","m","rechts","58","","","self","f","120","true"
"null","<div style=""font-size:60px;"">+</div>","null","html-keyboard-response","104","172654","0.0-6.0-0.49","DIGA","1","m","rechts","58","","fixation","","","",""
"1420","img/90_300.png","70","image-keyboard-response","105","174074","0.0-6.0-1.49","DIGA","1","m","rechts","58","","","self","f","90","true"
"null","<div style=""font-size:60px;"">+</div>","null","html-keyboard-response","106","174430","0.0-6.0-0.50","DIGA","1","m","rechts","58","","fixation","","","",""
"1440","img/150_270.png","74","image-keyboard-response","107","175871","0.0-6.0-1.50","DIGA","1","m","rechts","58","","","self","j","150","true"
"null","<div style=""font-size:60px;"">+</div>","null","html-keyboard-response","108","176175","0.0-6.0-0.51","DIGA","1","m","rechts","58","","fixation","","","",""
"1587","img/0_150.png","74","image-keyboard-response","109","177762","0.0-6.0-1.51","DIGA","1","m","rechts","58","","","self","j","0","true"
"null","<div style=""font-size:60px;"">+</div>","null","html-keyboard-response","110","178218","0.0-6.0-0.52","DIGA","1","m","rechts","58","","fixation","","","",""
"1671","img/0_240.png","70","image-keyboard-response","111","179889","0.0-6.0-1.52","DIGA","1","m","rechts","58","","","self","f","0","true"
"null","<div style=""font-size:60px;"">+</div>","null","html-keyboard-response","112","180342","0.0-6.0-0.53","DIGA","1","m","rechts","58","","fixation","","","",""
"1625","img/90_150.png","70","image-keyboard-response","113","181967","0.0-6.0-1.53","DIGA","1","m","rechts","58","","","self","f","90","true"
"null","<div style=""font-size:60px;"">+</div>","null","html-keyboard-response","114","182472","0.0-6.0-0.54","DIGA","1","m","rechts","58","","fixation","","","",""
"2698","img/150_240.png","74","image-keyboard-response","115","185171","0.0-6.0-1.54","DIGA","1","m","rechts","58","","","self","j","150","true"
"null","<div style=""font-size:60px;"">+</div>","null","html-keyboard-response","116","185577","0.0-6.0-0.55","DIGA","1","m","rechts","58","","fixation","","","",""
"1854","img/90_330.png","70","image-keyboard-response","117","187432","0.0-6.0-1.55","DIGA","1","m","rechts","58","","","self","f","90","true"
"null","<div style=""font-size:60px;"">+</div>","null","html-keyboard-response","118","187737","0.0-6.0-0.56","DIGA","1","m","rechts","58","","fixation","","","",""
"1978","img/90_60.png","74","image-keyboard-response","119","189716","0.0-6.0-1.56","DIGA","1","m","rechts","58","","","self","j","90","true"
"null","<div style=""font-size:60px;"">+</div>","null","html-keyboard-response","120","190070","0.0-6.0-0.57","DIGA","1","m","rechts","58","","fixation","","","",""
"1285","img/90_30.png","74","image-keyboard-response","121","191356","0.0-6.0-1.57","DIGA","1","m","rechts","58","","","self","j","90","true"
"null","<div style=""font-size:60px;"">+</div>","null","html-keyboard-response","122","191861","0.0-6.0-0.58","DIGA","1","m","rechts","58","","fixation","","","",""
"1455","img/90_300.png","74","image-keyboard-response","123","193317","0.0-6.0-1.58","DIGA","1","m","rechts","58","","","self","f","90","false"
"null","<div style=""font-size:60px;"">+</div>","null","html-keyboard-response","124","193619","0.0-6.0-0.59","DIGA","1","m","rechts","58","","fixation","","","",""
"1341","img/0_30.png","74","image-keyboard-response","125","194960","0.0-6.0-1.59","DIGA","1","m","rechts","58","","","self","j","0","true"
"null","<div style=""font-size:60px;"">+</div>","null","html-keyboard-response","126","195366","0.0-6.0-0.60","DIGA","1","m","rechts","58","","fixation","","","",""
"1496","img/0_300.png","70","image-keyboard-response","127","196862","0.0-6.0-1.60","DIGA","1","m","rechts","58","","","self","f","0","true"
"null","<div style=""font-size:60px;"">+</div>","null","html-keyboard-response","128","197267","0.0-6.0-0.61","DIGA","1","m","rechts","58","","fixation","","","",""
"1723","img/150_180.png","74","image-keyboard-response","129","198991","0.0-6.0-1.61","DIGA","1","m","rechts","58","","","self","j","150","true"
"null","<div style=""font-size:60px;"">+</div>","null","html-keyboard-response","130","199391","0.0-6.0-0.62","DIGA","1","m","rechts","58","","fixation","","","",""
"1853","img/L120_180.png","70","image-keyboard-response","131","201246","0.0-6.0-1.62","DIGA","1","m","rechts","58","","","self","f","120","true"
"null","<div style=""font-size:60px;"">+</div>","null","html-keyboard-response","132","201550","0.0-6.0-0.63","DIGA","1","m","rechts","58","","fixation","","","",""
"1481","img/120_30.png","74","image-keyboard-response","133","203032","0.0-6.0-1.63","DIGA","1","m","rechts","58","","","self","j","120","true"
"null","<div style=""font-size:60px;"">+</div>","null","html-keyboard-response","134","203438","0.0-6.0-0.64","DIGA","1","m","rechts","58","","fixation","","","",""
"2267","img/120_330.png","70","image-keyboard-response","135","205705","0.0-6.0-1.64","DIGA","1","m","rechts","58","","","self","f","120","true"
"null","<div style=""font-size:60px;"">+</div>","null","html-keyboard-response","136","206008","0.0-6.0-0.65","DIGA","1","m","rechts","58","","fixation","","","",""
"1566","img/60_210.png","74","image-keyboard-response","137","207576","0.0-6.0-1.65","DIGA","1","m","rechts","58","","","self","j","60","true"
"null","<div style=""font-size:60px;"">+</div>","null","html-keyboard-response","138","208079","0.0-6.0-0.66","DIGA","1","m","rechts","58","","fixation","","","",""
"1404","img/0_120.png","74","image-keyboard-response","139","209485","0.0-6.0-1.66","DIGA","1","m","rechts","58","","","self","j","0","true"
"null","<div style=""font-size:60px;"">+</div>","null","html-keyboard-response","140","209838","0.0-6.0-0.67","DIGA","1","m","rechts","58","","fixation","","","",""
"1952","img/30_180.png","70","image-keyboard-response","141","211792","0.0-6.0-1.67","DIGA","1","m","rechts","58","","","self","j","30","false"
"null","<div style=""font-size:60px;"">+</div>","null","html-keyboard-response","142","212097","0.0-6.0-0.68","DIGA","1","m","rechts","58","","fixation","","","",""
"1905","img/90_120.png","74","image-keyboard-response","143","214002","0.0-6.0-1.68","DIGA","1","m","rechts","58","","","self","f","90","false"
"null","<div style=""font-size:60px;"">+</div>","null","html-keyboard-response","144","214407","0.0-6.0-0.69","DIGA","1","m","rechts","58","","fixation","","","",""
"1396","img/120_90.png","70","image-keyboard-response","145","215803","0.0-6.0-1.69","DIGA","1","m","rechts","58","","","self","f","120","true"
"null","<div style=""font-size:60px;"">+</div>","null","html-keyboard-response","146","216259","0.0-6.0-0.70","DIGA","1","m","rechts","58","","fixation","","","",""
"1431","img/90_210.png","74","image-keyboard-response","147","217691","0.0-6.0-1.70","DIGA","1","m","rechts","58","","","self","j","90","true"
"null","<div style=""font-size:60px;"">+</div>","null","html-keyboard-response","148","217994","0.0-6.0-0.71","DIGA","1","m","rechts","58","","fixation","","","",""
"1795","img/30_90.png","74","image-keyboard-response","149","219790","0.0-6.0-1.71","DIGA","1","m","rechts","58","","","self","j","30","true"
"null","<div style=""font-size:60px;"">+</div>","null","html-keyboard-response","150","220296","0.0-6.0-0.72","DIGA","1","m","rechts","58","","fixation","","","",""
"1698","img/120_270.png","74","image-keyboard-response","151","221996","0.0-6.0-1.72","DIGA","1","m","rechts","58","","","self","j","120","true"
"null","<div style=""font-size:60px;"">+</div>","null","html-keyboard-response","152","222347","0.0-6.0-0.73","DIGA","1","m","rechts","58","","fixation","","","",""
"2308","img/60_90.png","74","image-keyboard-response","153","224657","0.0-6.0-1.73","DIGA","1","m","rechts","58","","","self","j","60","true"
"null","<div style=""font-size:60px;"">+</div>","null","html-keyboard-response","154","225161","0.0-6.0-0.74","DIGA","1","m","rechts","58","","fixation","","","",""
"1682","img/30_60.png","74","image-keyboard-response","155","226844","0.0-6.0-1.74","DIGA","1","m","rechts","58","","","self","j","30","true"
"null","<div style=""font-size:60px;"">+</div>","null","html-keyboard-response","156","227246","0.0-6.0-0.75","DIGA","1","m","rechts","58","","fixation","","","",""
"2256","img/150_270.png","74","image-keyboard-response","157","229504","0.0-6.0-1.75","DIGA","1","m","rechts","58","","","self","j","150","true"
"null","<div style=""font-size:60px;"">+</div>","null","html-keyboard-response","158","229904","0.0-6.0-0.76","DIGA","1","m","rechts","58","","fixation","","","",""
"1765","img/30_300.png","70","image-keyboard-response","159","231669","0.0-6.0-1.76","DIGA","1","m","rechts","58","","","self","f","30","true"
"null","<div style=""font-size:60px;"">+</div>","null","html-keyboard-response","160","232174","0.0-6.0-0.77","DIGA","1","m","rechts","58","","fixation","","","",""
"1158","img/30_270.png","70","image-keyboard-response","161","233332","0.0-6.0-1.77","DIGA","1","m","rechts","58","","","self","f","30","true"
"null","<div style=""font-size:60px;"">+</div>","null","html-keyboard-response","162","233738","0.0-6.0-0.78","DIGA","1","m","rechts","58","","fixation","","","",""
"1157","img/0_150.png","74","image-keyboard-response","163","234896","0.0-6.0-1.78","DIGA","1","m","rechts","58","","","self","j","0","true"
"null","<div style=""font-size:60px;"">+</div>","null","html-keyboard-response","164","235350","0.0-6.0-0.79","DIGA","1","m","rechts","58","","fixation","","","",""
"2039","img/150_60.png","74","image-keyboard-response","165","237389","0.0-6.0-1.79","DIGA","1","m","rechts","58","","","self","f","150","false"
"null","<div style=""font-size:60px;"">+</div>","null","html-keyboard-response","166","237792","0.0-6.0-0.80","DIGA","1","m","rechts","58","","fixation","","","",""
"1392","img/0_270.png","70","image-keyboard-response","167","239185","0.0-6.0-1.80","DIGA","1","m","rechts","58","","","self","f","0","true"
"null","<div style=""font-size:60px;"">+</div>","null","html-keyboard-response","168","239690","0.0-6.0-0.81","DIGA","1","m","rechts","58","","fixation","","","",""
"2236","img/120_150.png","70","image-keyboard-response","169","241927","0.0-6.0-1.81","DIGA","1","m","rechts","58","","","self","f","120","true"
"null","<div style=""font-size:60px;"">+</div>","null","html-keyboard-response","170","242431","0.0-6.0-0.82","DIGA","1","m","rechts","58","","fixation","","","",""
"2616","img/150_90.png","70","image-keyboard-response","171","245048","0.0-6.0-1.82","DIGA","1","m","rechts","58","","","self","f","150","true"
"null","<div style=""font-size:60px;"">+</div>","null","html-keyboard-response","172","245452","0.0-6.0-0.83","DIGA","1","m","rechts","58","","fixation","","","",""
"null","img/150_300.png","null","image-keyboard-response","173","248454","0.0-6.0-1.83","DIGA","1","m","rechts","58","","","self","j","150","false"
"null","<div style=""font-size:60px;"">+</div>","null","html-keyboard-response","174","248810","0.0-6.0-0.84","DIGA","1","m","rechts","58","","fixation","","","",""
"72","img/90_240.png","74","image-keyboard-response","175","248882","0.0-6.0-1.84","DIGA","1","m","rechts","58","","","self","j","90","true"
"null","<div style=""font-size:60px;"">+</div>","null","html-keyboard-response","176","249383","0.0-6.0-0.85","DIGA","1","m","rechts","58","","fixation","","","",""
"1795","img/120_210.png","74","image-keyboard-response","177","251178","0.0-6.0-1.85","DIGA","1","m","rechts","58","","","self","j","120","true"
"null","<div style=""font-size:60px;"">+</div>","null","html-keyboard-response","178","251482","0.0-6.0-0.86","DIGA","1","m","rechts","58","","fixation","","","",""
"2256","img/150_120.png","70","image-keyboard-response","179","253738","0.0-6.0-1.86","DIGA","1","m","rechts","58","","","self","f","150","true"
"null","<div style=""font-size:60px;"">+</div>","null","html-keyboard-response","180","254192","0.0-6.0-0.87","DIGA","1","m","rechts","58","","fixation","","","",""
"2123","img/L60_180.png","70","image-keyboard-response","181","256316","0.0-6.0-1.87","DIGA","1","m","rechts","58","","","self","f","60","true"
"null","<div style=""font-size:60px;"">+</div>","null","html-keyboard-response","182","256771","0.0-6.0-0.88","DIGA","1","m","rechts","58","","fixation","","","",""
"2050","img/L90_180.png","70","image-keyboard-response","183","258822","0.0-6.0-1.88","DIGA","1","m","rechts","58","","","self","f","90","true"
"null","<div style=""font-size:60px;"">+</div>","null","html-keyboard-response","184","259126","0.0-6.0-0.89","DIGA","1","m","rechts","58","","fixation","","","",""
"1720","img/L30_180.png","70","image-keyboard-response","185","260846","0.0-6.0-1.89","DIGA","1","m","rechts","58","","","self","f","30","true"
"null","<div style=""font-size:60px;"">+</div>","null","html-keyboard-response","186","261201","0.0-6.0-0.90","DIGA","1","m","rechts","58","","fixation","","","",""
"1794","img/90_180.png","74","image-keyboard-response","187","262995","0.0-6.0-1.90","DIGA","1","m","rechts","58","","","self","j","90","true"
"null","<div style=""font-size:60px;"">+</div>","null","html-keyboard-response","188","263302","0.0-6.0-0.91","DIGA","1","m","rechts","58","","fixation","","","",""
"1082","img/0_90.png","74","image-keyboard-response","189","264384","0.0-6.0-1.91","DIGA","1","m","rechts","58","","","self","j","0","true"
"null","<div style=""font-size:60px;"">+</div>","null","html-keyboard-response","190","264789","0.0-6.0-0.92","DIGA","1","m","rechts","58","","fixation","","","",""
"853","img/0_60.png","74","image-keyboard-response","191","265643","0.0-6.0-1.92","DIGA","1","m","rechts","58","","","self","j","0","true"
"null","<div style=""font-size:60px;"">+</div>","null","html-keyboard-response","192","265996","0.0-6.0-0.93","DIGA","1","m","rechts","58","","fixation","","","",""
"1851","img/60_330.png","70","image-keyboard-response","193","267847","0.0-6.0-1.93","DIGA","1","m","rechts","58","","","self","f","60","true"
"null","<div style=""font-size:60px;"">+</div>","null","html-keyboard-response","194","268300","0.0-6.0-0.94","DIGA","1","m","rechts","58","","fixation","","","",""
"1923","img/60_30.png","74","image-keyboard-response","195","270223","0.0-6.0-1.94","DIGA","1","m","rechts","58","","","self","j","60","true"
"null","<div style=""font-size:60px;"">+</div>","null","html-keyboard-response","196","270528","0.0-6.0-0.95","DIGA","1","m","rechts","58","","fixation","","","",""
"1545","img/60_180.png","74","image-keyboard-response","197","272073","0.0-6.0-1.95","DIGA","1","m","rechts","58","","","self","j","60","true"
"null","<div style=""font-size:60px;"">+</div>","null","html-keyboard-response","198","272578","0.0-6.0-0.96","DIGA","1","m","rechts","58","","fixation","","","",""
"1867","img/0_330.png","70","image-keyboard-response","199","274445","0.0-6.0-1.96","DIGA","1","m","rechts","58","","","self","f","0","true"
"null","<div style=""font-size:60px;"">+</div>","null","html-keyboard-response","200","274951","0.0-6.0-0.97","DIGA","1","m","rechts","58","","fixation","","","",""
"1589","img/120_180.png","74","image-keyboard-response","201","276540","0.0-6.0-1.97","DIGA","1","m","rechts","58","","","self","j","120","true"
"null","<div style=""font-size:60px;"">+</div>","null","html-keyboard-response","202","276895","0.0-6.0-0.98","DIGA","1","m","rechts","58","","fixation","","","",""
"1994","img/30_240.png","74","image-keyboard-response","203","278891","0.0-6.0-1.98","DIGA","1","m","rechts","58","","","self","f","30","false"
"null","<div style=""font-size:60px;"">+</div>","null","html-keyboard-response","204","279193","0.0-6.0-0.99","DIGA","1","m","rechts","58","","fixation","","","",""
"1431","img/0_210.png","70","image-keyboard-response","205","280626","0.0-6.0-1.99","DIGA","1","m","rechts","58","","","self","f","0","true"
"null","<div style=""font-size:60px;"">+</div>","null","html-keyboard-response","206","281031","0.0-6.0-0.100","DIGA","1","m","rechts","58","","fixation","","","",""
"1728","img/60_270.png","70","image-keyboard-response","207","282760","0.0-6.0-1.100","DIGA","1","m","rechts","58","","","self","f","60","true"
"null","<div style=""font-size:60px;"">+</div>","null","html-keyboard-response","208","283216","0.0-6.0-0.101","DIGA","1","m","rechts","58","","fixation","","","",""
"1842","img/30_120.png","74","image-keyboard-response","209","285059","0.0-6.0-1.101","DIGA","1","m","rechts","58","","","self","j","30","true"
"null","<div style=""font-size:60px;"">+</div>","null","html-keyboard-response","210","285363","0.0-6.0-0.102","DIGA","1","m","rechts","58","","fixation","","","",""
"1617","img/60_150.png","70","image-keyboard-response","211","286982","0.0-6.0-1.102","DIGA","1","m","rechts","58","","","self","f","60","true"
"null","<div style=""font-size:60px;"">+</div>","null","html-keyboard-response","212","287338","0.0-6.0-0.103","DIGA","1","m","rechts","58","","fixation","","","",""
"2293","img/L150_180.png","70","image-keyboard-response","213","289631","0.0-6.0-1.103","DIGA","1","m","rechts","58","","","self","f","150","true"
"null","<div style=""font-size:60px;"">+</div>","null","html-keyboard-response","214","289932","0.0-6.0-0.104","DIGA","1","m","rechts","58","","fixation","","","",""
"2010","img/90_150.png","70","image-keyboard-response","215","291943","0.0-6.0-1.104","DIGA","1","m","rechts","58","","","self","f","90","true"
"null","<div style=""font-size:60px;"">+</div>","null","html-keyboard-response","216","292348","0.0-6.0-0.105","DIGA","1","m","rechts","58","","fixation","","","",""
"1225","img/0_60.png","74","image-keyboard-response","217","293573","0.0-6.0-1.105","DIGA","1","m","rechts","58","","","self","j","0","true"
"null","<div style=""font-size:60px;"">+</div>","null","html-keyboard-response","218","293977","0.0-6.0-0.106","DIGA","1","m","rechts","58","","fixation","","","",""
"1820","img/60_180.png","74","image-keyboard-response","219","295798","0.0-6.0-1.106","DIGA","1","m","rechts","58","","","self","j","60","true"
"null","<div style=""font-size:60px;"">+</div>","null","html-keyboard-response","220","296151","0.0-6.0-0.107","DIGA","1","m","rechts","58","","fixation","","","",""
"1418","img/150_270.png","74","image-keyboard-response","221","297569","0.0-6.0-1.107","DIGA","1","m","rechts","58","","","self","j","150","true"
"null","<div style=""font-size:60px;"">+</div>","null","html-keyboard-response","222","298025","0.0-6.0-0.108","DIGA","1","m","rechts","58","","fixation","","","",""
"1920","img/150_120.png","70","image-keyboard-response","223","299946","0.0-6.0-1.108","DIGA","1","m","rechts","58","","","self","f","150","true"
"null","<div style=""font-size:60px;"">+</div>","null","html-keyboard-response","224","300450","0.0-6.0-0.109","DIGA","1","m","rechts","58","","fixation","","","",""
"1911","img/90_180.png","74","image-keyboard-response","225","302361","0.0-6.0-1.109","DIGA","1","m","rechts","58","","","self","j","90","true"
"null","<div style=""font-size:60px;"">+</div>","null","html-keyboard-response","226","302864","0.0-6.0-0.110","DIGA","1","m","rechts","58","","fixation","","","",""
"1934","img/60_30.png","74","image-keyboard-response","227","304799","0.0-6.0-1.110","DIGA","1","m","rechts","58","","","self","j","60","true"
"null","<div style=""font-size:60px;"">+</div>","null","html-keyboard-response","228","305204","0.0-6.0-0.111","DIGA","1","m","rechts","58","","fixation","","","",""
"1296","img/0_240.png","70","image-keyboard-response","229","306502","0.0-6.0-1.111","DIGA","1","m","rechts","58","","","self","f","0","true"
"null","<div style=""font-size:60px;"">+</div>","null","html-keyboard-response","230","306804","0.0-6.0-0.112","DIGA","1","m","rechts","58","","fixation","","","",""
"1898","img/90_30.png","74","image-keyboard-response","231","308703","0.0-6.0-1.112","DIGA","1","m","rechts","58","","","self","j","90","true"
"null","<div style=""font-size:60px;"">+</div>","null","html-keyboard-response","232","309059","0.0-6.0-0.113","DIGA","1","m","rechts","58","","fixation","","","",""
"2268","img/120_270.png","74","image-keyboard-response","233","311327","0.0-6.0-1.113","DIGA","1","m","rechts","58","","","self","j","120","true"
"null","<div style=""font-size:60px;"">+</div>","null","html-keyboard-response","234","311833","0.0-6.0-0.114","DIGA","1","m","rechts","58","","fixation","","","",""
"1505","img/120_210.png","74","image-keyboard-response","235","313338","0.0-6.0-1.114","DIGA","1","m","rechts","58","","","self","j","120","true"
"null","<div style=""font-size:60px;"">+</div>","null","html-keyboard-response","236","313844","0.0-6.0-0.115","DIGA","1","m","rechts","58","","fixation","","","",""
"1487","img/150_240.png","74","image-keyboard-response","237","315331","0.0-6.0-1.115","DIGA","1","m","rechts","58","","","self","j","150","true"
"null","<div style=""font-size:60px;"">+</div>","null","html-keyboard-response","238","315784","0.0-6.0-0.116","DIGA","1","m","rechts","58","","fixation","","","",""
"1836","img/30_180.png","74","image-keyboard-response","239","317621","0.0-6.0-1.116","DIGA","1","m","rechts","58","","","self","j","30","true"
"null","<div style=""font-size:60px;"">+</div>","null","html-keyboard-response","240","317924","0.0-6.0-0.117","DIGA","1","m","rechts","58","","fixation","","","",""
"1812","img/0_210.png","70","image-keyboard-response","241","319738","0.0-6.0-1.117","DIGA","1","m","rechts","58","","","self","f","0","true"
"null","<div style=""font-size:60px;"">+</div>","null","html-keyboard-response","242","320091","0.0-6.0-0.118","DIGA","1","m","rechts","58","","fixation","","","",""
"1729","img/L60_180.png","70","image-keyboard-response","243","321821","0.0-6.0-1.118","DIGA","1","m","rechts","58","","","self","f","60","true"
"null","<div style=""font-size:60px;"">+</div>","null","html-keyboard-response","244","322121","0.0-6.0-0.119","DIGA","1","m","rechts","58","","fixation","","","",""
"1380","img/L30_180.png","70","image-keyboard-response","245","323502","0.0-6.0-1.119","DIGA","1","m","rechts","58","","","self","f","30","true"
"null","<div style=""font-size:60px;"">+</div>","null","html-keyboard-response","246","324003","0.0-6.0-0.120","DIGA","1","m","rechts","58","","fixation","","","",""
"1442","img/90_240.png","74","image-keyboard-response","247","325446","0.0-6.0-1.120","DIGA","1","m","rechts","58","","","self","j","90","true"
"null","<div style=""font-size:60px;"">+</div>","null","html-keyboard-response","248","325749","0.0-6.0-0.121","DIGA","1","m","rechts","58","","fixation","","","",""
"1911","img/150_90.png","70","image-keyboard-response","249","327660","0.0-6.0-1.121","DIGA","1","m","rechts","58","","","self","f","150","true"
"null","<div style=""font-size:60px;"">+</div>","null","html-keyboard-response","250","328013","0.0-6.0-0.122","DIGA","1","m","rechts","58","","fixation","","","",""
"1500","img/0_330.png","70","image-keyboard-response","251","329514","0.0-6.0-1.122","DIGA","1","m","rechts","58","","","self","f","0","true"
"null","<div style=""font-size:60px;"">+</div>","null","html-keyboard-response","252","329870","0.0-6.0-0.123","DIGA","1","m","rechts","58","","fixation","","","",""
"1571","img/60_210.png","74","image-keyboard-response","253","331443","0.0-6.0-1.123","DIGA","1","m","rechts","58","","","self","j","60","true"
"null","<div style=""font-size:60px;"">+</div>","null","html-keyboard-response","254","331798","0.0-6.0-0.124","DIGA","1","m","rechts","58","","fixation","","","",""
"1593","img/60_270.png","74","image-keyboard-response","255","333391","0.0-6.0-1.124","DIGA","1","m","rechts","58","","","self","f","60","false"
"null","<div style=""font-size:60px;"">+</div>","null","html-keyboard-response","256","333846","0.0-6.0-0.125","DIGA","1","m","rechts","58","","fixation","","","",""
"1629","img/120_330.png","70","image-keyboard-response","257","335475","0.0-6.0-1.125","DIGA","1","m","rechts","58","","","self","f","120","true"
"null","<div style=""font-size:60px;"">+</div>","null","html-keyboard-response","258","335931","0.0-6.0-0.126","DIGA","1","m","rechts","58","","fixation","","","",""
"1505","img/60_150.png","70","image-keyboard-response","259","337436","0.0-6.0-1.126","DIGA","1","m","rechts","58","","","self","f","60","true"
"null","<div style=""font-size:60px;"">+</div>","null","html-keyboard-response","260","337787","0.0-6.0-0.127","DIGA","1","m","rechts","58","","fixation","","","",""
"1236","img/L120_180.png","70","image-keyboard-response","261","339023","0.0-6.0-1.127","DIGA","1","m","rechts","58","","","self","f","120","true"
"null","<div style=""font-size:60px;"">+</div>","null","html-keyboard-response","262","339425","0.0-6.0-0.128","DIGA","1","m","rechts","58","","fixation","","","",""
"2497","img/90_330.png","70","image-keyboard-response","263","341922","0.0-6.0-1.128","DIGA","1","m","rechts","58","","","self","f","90","true"
"null","<div style=""font-size:60px;"">+</div>","null","html-keyboard-response","264","342273","0.0-6.0-0.129","DIGA","1","m","rechts","58","","fixation","","","",""
"1473","img/90_120.png","70","image-keyboard-response","265","343749","0.0-6.0-1.129","DIGA","1","m","rechts","58","","","self","f","90","true"
"null","<div style=""font-size:60px;"">+</div>","null","html-keyboard-response","266","344055","0.0-6.0-0.130","DIGA","1","m","rechts","58","","fixation","","","",""
"1371","img/L90_180.png","70","image-keyboard-response","267","345426","0.0-6.0-1.130","DIGA","1","m","rechts","58","","","self","f","90","true"
"null","<div style=""font-size:60px;"">+</div>","null","html-keyboard-response","268","345832","0.0-6.0-0.131","DIGA","1","m","rechts","58","","fixation","","","",""
"1650","img/120_180.png","74","image-keyboard-response","269","347483","0.0-6.0-1.131","DIGA","1","m","rechts","58","","","self","j","120","true"
"null","<div style=""font-size:60px;"">+</div>","null","html-keyboard-response","270","347986","0.0-6.0-0.132","DIGA","1","m","rechts","58","","fixation","","","",""
"1724","img/60_330.png","70","image-keyboard-response","271","349710","0.0-6.0-1.132","DIGA","1","m","rechts","58","","","self","f","60","true"
"null","<div style=""font-size:60px;"">+</div>","null","html-keyboard-response","272","350163","0.0-6.0-0.133","DIGA","1","m","rechts","58","","fixation","","","",""
"1884","img/60_90.png","74","image-keyboard-response","273","352047","0.0-6.0-1.133","DIGA","1","m","rechts","58","","","self","j","60","true"
"null","<div style=""font-size:60px;"">+</div>","null","html-keyboard-response","274","352501","0.0-6.0-0.134","DIGA","1","m","rechts","58","","fixation","","","",""
"1418","img/0_120.png","74","image-keyboard-response","275","353920","0.0-6.0-1.134","DIGA","1","m","rechts","58","","","self","j","0","true"
"null","<div style=""font-size:60px;"">+</div>","null","html-keyboard-response","276","354375","0.0-6.0-0.135","DIGA","1","m","rechts","58","","fixation","","","",""
"1649","img/30_240.png","74","image-keyboard-response","277","356025","0.0-6.0-1.135","DIGA","1","m","rechts","58","","","self","f","30","false"
"null","<div style=""font-size:60px;"">+</div>","null","html-keyboard-response","278","356431","0.0-6.0-0.136","DIGA","1","m","rechts","58","","fixation","","","",""
"1523","img/L150_180.png","70","image-keyboard-response","279","357954","0.0-6.0-1.136","DIGA","1","m","rechts","58","","","self","f","150","true"
"null","<div style=""font-size:60px;"">+</div>","null","html-keyboard-response","280","358410","0.0-6.0-0.137","DIGA","1","m","rechts","58","","fixation","","","",""
"1834","img/0_270.png","70","image-keyboard-response","281","360245","0.0-6.0-1.137","DIGA","1","m","rechts","58","","","self","f","0","true"
"null","<div style=""font-size:60px;"">+</div>","null","html-keyboard-response","282","360751","0.0-6.0-0.138","DIGA","1","m","rechts","58","","fixation","","","",""
"1757","img/90_300.png","70","image-keyboard-response","283","362509","0.0-6.0-1.138","DIGA","1","m","rechts","58","","","self","f","90","true"
"null","<div style=""font-size:60px;"">+</div>","null","html-keyboard-response","284","362862","0.0-6.0-0.139","DIGA","1","m","rechts","58","","fixation","","","",""
"1595","img/30_270.png","70","image-keyboard-response","285","364458","0.0-6.0-1.139","DIGA","1","m","rechts","58","","","self","f","30","true"
"null","<div style=""font-size:60px;"">+</div>","null","html-keyboard-response","286","364963","0.0-6.0-0.140","DIGA","1","m","rechts","58","","fixation","","","",""
"1449","img/150_300.png","74","image-keyboard-response","287","366412","0.0-6.0-1.140","DIGA","1","m","rechts","58","","","self","j","150","true"
"null","<div style=""font-size:60px;"">+</div>","null","html-keyboard-response","288","366763","0.0-6.0-0.141","DIGA","1","m","rechts","58","","fixation","","","",""
"1614","img/90_210.png","74","image-keyboard-response","289","368377","0.0-6.0-1.141","DIGA","1","m","rechts","58","","","self","j","90","true"
"null","<div style=""font-size:60px;"">+</div>","null","html-keyboard-response","290","368881","0.0-6.0-0.142","DIGA","1","m","rechts","58","","fixation","","","",""
"1747","img/120_30.png","70","image-keyboard-response","291","370628","0.0-6.0-1.142","DIGA","1","m","rechts","58","","","self","j","120","false"
"null","<div style=""font-size:60px;"">+</div>","null","html-keyboard-response","292","370930","0.0-6.0-0.143","DIGA","1","m","rechts","58","","fixation","","","",""
"1476","img/90_60.png","70","image-keyboard-response","293","372406","0.0-6.0-1.143","DIGA","1","m","rechts","58","","","self","j","90","false"
"null","<div style=""font-size:60px;"">+</div>","null","html-keyboard-response","294","372911","0.0-6.0-0.144","DIGA","1","m","rechts","58","","fixation","","","",""
"1500","img/30_120.png","70","image-keyboard-response","295","374413","0.0-6.0-1.144","DIGA","1","m","rechts","58","","","self","j","30","false"
"null","<div style=""font-size:60px;"">+</div>","null","html-keyboard-response","296","374818","0.0-6.0-0.145","DIGA","1","m","rechts","58","","fixation","","","",""
"1752","img/0_30.png","74","image-keyboard-response","297","376570","0.0-6.0-1.145","DIGA","1","m","rechts","58","","","self","j","0","true"
"null","<div style=""font-size:60px;"">+</div>","null","html-keyboard-response","298","376976","0.0-6.0-0.146","DIGA","1","m","rechts","58","","fixation","","","",""
"1765","img/30_60.png","74","image-keyboard-response","299","378741","0.0-6.0-1.146","DIGA","1","m","rechts","58","","","self","j","30","true"
"null","<div style=""font-size:60px;"">+</div>","null","html-keyboard-response","300","379097","0.0-6.0-0.147","DIGA","1","m","rechts","58","","fixation","","","",""
"1467","img/0_150.png","74","image-keyboard-response","301","380564","0.0-6.0-1.147","DIGA","1","m","rechts","58","","","self","j","0","true"
"null","<div style=""font-size:60px;"">+</div>","null","html-keyboard-response","302","380869","0.0-6.0-0.148","DIGA","1","m","rechts","58","","fixation","","","",""
"1499","img/30_90.png","74","image-keyboard-response","303","382369","0.0-6.0-1.148","DIGA","1","m","rechts","58","","","self","j","30","true"
"null","<div style=""font-size:60px;"">+</div>","null","html-keyboard-response","304","382822","0.0-6.0-0.149","DIGA","1","m","rechts","58","","fixation","","","",""
"1217","img/120_150.png","70","image-keyboard-response","305","384040","0.0-6.0-1.149","DIGA","1","m","rechts","58","","","self","f","120","true"
"null","<div style=""font-size:60px;"">+</div>","null","html-keyboard-response","306","384343","0.0-6.0-0.150","DIGA","1","m","rechts","58","","fixation","","","",""
"1566","img/150_180.png","74","image-keyboard-response","307","385910","0.0-6.0-1.150","DIGA","1","m","rechts","58","","","self","j","150","true"
"null","<div style=""font-size:60px;"">+</div>","null","html-keyboard-response","308","386266","0.0-6.0-0.151","DIGA","1","m","rechts","58","","fixation","","","",""
"1405","img/0_90.png","74","image-keyboard-response","309","387673","0.0-6.0-1.151","DIGA","1","m","rechts","58","","","self","j","0","true"
"null","<div style=""font-size:60px;"">+</div>","null","html-keyboard-response","310","388029","0.0-6.0-0.152","DIGA","1","m","rechts","58","","fixation","","","",""
"1667","img/150_60.png","70","image-keyboard-response","311","389696","0.0-6.0-1.152","DIGA","1","m","rechts","58","","","self","f","150","true"
"null","<div style=""font-size:60px;"">+</div>","null","html-keyboard-response","312","390199","0.0-6.0-0.153","DIGA","1","m","rechts","58","","fixation","","","",""
"1784","img/30_300.png","70","image-keyboard-response","313","391985","0.0-6.0-1.153","DIGA","1","m","rechts","58","","","self","f","30","true"
"null","<div style=""font-size:60px;"">+</div>","null","html-keyboard-response","314","392336","0.0-6.0-0.154","DIGA","1","m","rechts","58","","fixation","","","",""
"1286","img/0_300.png","70","image-keyboard-response","315","393623","0.0-6.0-1.154","DIGA","1","m","rechts","58","","","self","f","0","true"
"null","<div style=""font-size:60px;"">+</div>","null","html-keyboard-response","316","393978","0.0-6.0-0.155","DIGA","1","m","rechts","58","","fixation","","","",""
"1896","img/120_90.png","70","image-keyboard-response","317","395875","0.0-6.0-1.155","DIGA","1","m","rechts","58","","","self","f","120","true"
"null","<div style=""font-size:60px;"">+</div>","null","html-keyboard-response","318","396278","0.0-6.0-0.156","DIGA","1","m","rechts","58","","fixation","","","",""
"1389","img/30_90.png","74","image-keyboard-response","319","397668","0.0-6.0-1.156","DIGA","1","m","rechts","58","","","self","j","30","true"
"null","<div style=""font-size:60px;"">+</div>","null","html-keyboard-response","320","398123","0.0-6.0-0.157","DIGA","1","m","rechts","58","","fixation","","","",""
"1500","img/90_120.png","70","image-keyboard-response","321","399624","0.0-6.0-1.157","DIGA","1","m","rechts","58","","","self","f","90","true"
"null","<div style=""font-size:60px;"">+</div>","null","html-keyboard-response","322","400130","0.0-6.0-0.158","DIGA","1","m","rechts","58","","fixation","","","",""
"1302","img/60_180.png","74","image-keyboard-response","323","401434","0.0-6.0-1.158","DIGA","1","m","rechts","58","","","self","j","60","true"
"null","<div style=""font-size:60px;"">+</div>","null","html-keyboard-response","324","401936","0.0-6.0-0.159","DIGA","1","m","rechts","58","","fixation","","","",""
"1432","img/30_180.png","74","image-keyboard-response","325","403369","0.0-6.0-1.159","DIGA","1","m","rechts","58","","","self","j","30","true"
"null","<div style=""font-size:60px;"">+</div>","null","html-keyboard-response","326","403774","0.0-6.0-0.160","DIGA","1","m","rechts","58","","fixation","","","",""
"1309","img/60_150.png","70","image-keyboard-response","327","405084","0.0-6.0-1.160","DIGA","1","m","rechts","58","","","self","f","60","true"
"null","<div style=""font-size:60px;"">+</div>","null","html-keyboard-response","328","405390","0.0-6.0-0.161","DIGA","1","m","rechts","58","","fixation","","","",""
"1222","img/0_270.png","70","image-keyboard-response","329","406612","0.0-6.0-1.161","DIGA","1","m","rechts","58","","","self","f","0","true"
"null","<div style=""font-size:60px;"">+</div>","null","html-keyboard-response","330","407118","0.0-6.0-0.162","DIGA","1","m","rechts","58","","fixation","","","",""
"1432","img/60_210.png","74","image-keyboard-response","331","408552","0.0-6.0-1.162","DIGA","1","m","rechts","58","","","self","j","60","true"
"null","<div style=""font-size:60px;"">+</div>","null","html-keyboard-response","332","409054","0.0-6.0-0.163","DIGA","1","m","rechts","58","","fixation","","","",""
"1385","img/90_240.png","74","image-keyboard-response","333","410441","0.0-6.0-1.163","DIGA","1","m","rechts","58","","","self","j","90","true"
"null","<div style=""font-size:60px;"">+</div>","null","html-keyboard-response","334","410742","0.0-6.0-0.164","DIGA","1","m","rechts","58","","fixation","","","",""
"1572","img/90_30.png","74","image-keyboard-response","335","412314","0.0-6.0-1.164","DIGA","1","m","rechts","58","","","self","j","90","true"
"null","<div style=""font-size:60px;"">+</div>","null","html-keyboard-response","336","412720","0.0-6.0-0.165","DIGA","1","m","rechts","58","","fixation","","","",""
"1518","img/120_30.png","74","image-keyboard-response","337","414238","0.0-6.0-1.165","DIGA","1","m","rechts","58","","","self","j","120","true"
"null","<div style=""font-size:60px;"">+</div>","null","html-keyboard-response","338","414693","0.0-6.0-0.166","DIGA","1","m","rechts","58","","fixation","","","",""
"2477","img/120_270.png","70","image-keyboard-response","339","417171","0.0-6.0-1.166","DIGA","1","m","rechts","58","","","self","j","120","false"
"null","<div style=""font-size:60px;"">+</div>","null","html-keyboard-response","340","417526","0.0-6.0-0.167","DIGA","1","m","rechts","58","","fixation","","","",""
"1619","img/L30_180.png","74","image-keyboard-response","341","419145","0.0-6.0-1.167","DIGA","1","m","rechts","58","","","self","f","30","false"
"null","<div style=""font-size:60px;"">+</div>","null","html-keyboard-response","342","419501","0.0-6.0-0.168","DIGA","1","m","rechts","58","","fixation","","","",""
"1932","img/0_120.png","74","image-keyboard-response","343","421434","0.0-6.0-1.168","DIGA","1","m","rechts","58","","","self","j","0","true"
"null","<div style=""font-size:60px;"">+</div>","null","html-keyboard-response","344","421838","0.0-6.0-0.169","DIGA","1","m","rechts","58","","fixation","","","",""
"1485","img/90_210.png","74","image-keyboard-response","345","423324","0.0-6.0-1.169","DIGA","1","m","rechts","58","","","self","j","90","true"
"null","<div style=""font-size:60px;"">+</div>","null","html-keyboard-response","346","423679","0.0-6.0-0.170","DIGA","1","m","rechts","58","","fixation","","","",""
"1199","img/120_330.png","70","image-keyboard-response","347","424878","0.0-6.0-1.170","DIGA","1","m","rechts","58","","","self","f","120","true"
"null","<div style=""font-size:60px;"">+</div>","null","html-keyboard-response","348","425284","0.0-6.0-0.171","DIGA","1","m","rechts","58","","fixation","","","",""
"1653","img/30_120.png","74","image-keyboard-response","349","426937","0.0-6.0-1.171","DIGA","1","m","rechts","58","","","self","j","30","true"
"null","<div style=""font-size:60px;"">+</div>","null","html-keyboard-response","350","427289","0.0-6.0-0.172","DIGA","1","m","rechts","58","","fixation","","","",""
"1485","img/150_90.png","70","image-keyboard-response","351","428775","0.0-6.0-1.172","DIGA","1","m","rechts","58","","","self","f","150","true"
"null","<div style=""font-size:60px;"">+</div>","null","html-keyboard-response","352","429129","0.0-6.0-0.173","DIGA","1","m","rechts","58","","fixation","","","",""
"1510","img/90_150.png","70","image-keyboard-response","353","430640","0.0-6.0-1.173","DIGA","1","m","rechts","58","","","self","f","90","true"
"null","<div style=""font-size:60px;"">+</div>","null","html-keyboard-response","354","431046","0.0-6.0-0.174","DIGA","1","m","rechts","58","","fixation","","","",""
"2057","img/30_300.png","70","image-keyboard-response","355","433104","0.0-6.0-1.174","DIGA","1","m","rechts","58","","","self","f","30","true"
"null","<div style=""font-size:60px;"">+</div>","null","html-keyboard-response","356","433609","0.0-6.0-0.175","DIGA","1","m","rechts","58","","fixation","","","",""
"1493","img/60_330.png","70","image-keyboard-response","357","435105","0.0-6.0-1.175","DIGA","1","m","rechts","58","","","self","f","60","true"
"null","<div style=""font-size:60px;"">+</div>","null","html-keyboard-response","358","435456","0.0-6.0-0.176","DIGA","1","m","rechts","58","","fixation","","","",""
"2650","img/60_30.png","74","image-keyboard-response","359","438107","0.0-6.0-1.176","DIGA","1","m","rechts","58","","","self","j","60","true"
"null","<div style=""font-size:60px;"">+</div>","null","html-keyboard-response","360","438462","0.0-6.0-0.177","DIGA","1","m","rechts","58","","fixation","","","",""
"1830","img/0_240.png","70","image-keyboard-response","361","440293","0.0-6.0-1.177","DIGA","1","m","rechts","58","","","self","f","0","true"
"null","<div style=""font-size:60px;"">+</div>","null","html-keyboard-response","362","440598","0.0-6.0-0.178","DIGA","1","m","rechts","58","","fixation","","","",""
"1652","img/0_330.png","70","image-keyboard-response","363","442250","0.0-6.0-1.178","DIGA","1","m","rechts","58","","","self","f","0","true"
"null","<div style=""font-size:60px;"">+</div>","null","html-keyboard-response","364","442653","0.0-6.0-0.179","DIGA","1","m","rechts","58","","fixation","","","",""
"1700","img/150_300.png","74","image-keyboard-response","365","444353","0.0-6.0-1.179","DIGA","1","m","rechts","58","","","self","j","150","true"
"null","<div style=""font-size:60px;"">+</div>","null","html-keyboard-response","366","444659","0.0-6.0-0.180","DIGA","1","m","rechts","58","","fixation","","","",""
"1794","img/90_330.png","70","image-keyboard-response","367","446453","0.0-6.0-1.180","DIGA","1","m","rechts","58","","","self","f","90","true"
"null","<div style=""font-size:60px;"">+</div>","null","html-keyboard-response","368","446809","0.0-6.0-0.181","DIGA","1","m","rechts","58","","fixation","","","",""
"1617","img/150_270.png","74","image-keyboard-response","369","448427","0.0-6.0-1.181","DIGA","1","m","rechts","58","","","self","j","150","true"
"null","<div style=""font-size:60px;"">+</div>","null","html-keyboard-response","370","448731","0.0-6.0-0.182","DIGA","1","m","rechts","58","","fixation","","","",""
"1955","img/L120_180.png","70","image-keyboard-response","371","450687","0.0-6.0-1.182","DIGA","1","m","rechts","58","","","self","f","120","true"
"null","<div style=""font-size:60px;"">+</div>","null","html-keyboard-response","372","451094","0.0-6.0-0.183","DIGA","1","m","rechts","58","","fixation","","","",""
"1534","img/120_150.png","70","image-keyboard-response","373","452629","0.0-6.0-1.183","DIGA","1","m","rechts","58","","","self","f","120","true"
"null","<div style=""font-size:60px;"">+</div>","null","html-keyboard-response","374","453085","0.0-6.0-0.184","DIGA","1","m","rechts","58","","fixation","","","",""
"1019","img/90_180.png","74","image-keyboard-response","375","454104","0.0-6.0-1.184","DIGA","1","m","rechts","58","","","self","j","90","true"
"null","<div style=""font-size:60px;"">+</div>","null","html-keyboard-response","376","454511","0.0-6.0-0.185","DIGA","1","m","rechts","58","","fixation","","","",""
"1203","img/0_60.png","74","image-keyboard-response","377","455716","0.0-6.0-1.185","DIGA","1","m","rechts","58","","","self","j","0","true"
"null","<div style=""font-size:60px;"">+</div>","null","html-keyboard-response","378","456119","0.0-6.0-0.186","DIGA","1","m","rechts","58","","fixation","","","",""
"1526","img/120_90.png","70","image-keyboard-response","379","457647","0.0-6.0-1.186","DIGA","1","m","rechts","58","","","self","f","120","true"
"null","<div style=""font-size:60px;"">+</div>","null","html-keyboard-response","380","458152","0.0-6.0-0.187","DIGA","1","m","rechts","58","","fixation","","","",""
"1070","img/150_120.png","70","image-keyboard-response","381","459224","0.0-6.0-1.187","DIGA","1","m","rechts","58","","","self","f","150","true"
"null","<div style=""font-size:60px;"">+</div>","null","html-keyboard-response","382","459624","0.0-6.0-0.188","DIGA","1","m","rechts","58","","fixation","","","",""
"1562","img/60_90.png","74","image-keyboard-response","383","461188","0.0-6.0-1.188","DIGA","1","m","rechts","58","","","self","j","60","true"
"null","<div style=""font-size:60px;"">+</div>","null","html-keyboard-response","384","461643","0.0-6.0-0.189","DIGA","1","m","rechts","58","","fixation","","","",""
"1793","img/150_240.png","74","image-keyboard-response","385","463437","0.0-6.0-1.189","DIGA","1","m","rechts","58","","","self","j","150","true"
"null","<div style=""font-size:60px;"">+</div>","null","html-keyboard-response","386","463793","0.0-6.0-0.190","DIGA","1","m","rechts","58","","fixation","","","",""
"1226","img/L150_180.png","70","image-keyboard-response","387","465019","0.0-6.0-1.190","DIGA","1","m","rechts","58","","","self","f","150","true"
"null","<div style=""font-size:60px;"">+</div>","null","html-keyboard-response","388","465476","0.0-6.0-0.191","DIGA","1","m","rechts","58","","fixation","","","",""
"2042","img/150_60.png","70","image-keyboard-response","389","467519","0.0-6.0-1.191","DIGA","1","m","rechts","58","","","self","f","150","true"
"null","<div style=""font-size:60px;"">+</div>","null","html-keyboard-response","390","467823","0.0-6.0-0.192","DIGA","1","m","rechts","58","","fixation","","","",""
"1819","img/60_270.png","70","image-keyboard-response","391","469643","0.0-6.0-1.192","DIGA","1","m","rechts","58","","","self","f","60","true"
"null","<div style=""font-size:60px;"">+</div>","null","html-keyboard-response","392","469996","0.0-6.0-0.193","DIGA","1","m","rechts","58","","fixation","","","",""
"1829","img/L90_180.png","70","image-keyboard-response","393","471825","0.0-6.0-1.193","DIGA","1","m","rechts","58","","","self","f","90","true"
"null","<div style=""font-size:60px;"">+</div>","null","html-keyboard-response","394","472227","0.0-6.0-0.194","DIGA","1","m","rechts","58","","fixation","","","",""
"1624","img/90_300.png","74","image-keyboard-response","395","473851","0.0-6.0-1.194","DIGA","1","m","rechts","58","","","self","f","90","false"
"null","<div style=""font-size:60px;"">+</div>","null","html-keyboard-response","396","474356","0.0-6.0-0.195","DIGA","1","m","rechts","58","","fixation","","","",""
"1820","img/30_270.png","70","image-keyboard-response","397","476177","0.0-6.0-1.195","DIGA","1","m","rechts","58","","","self","f","30","true"
"null","<div style=""font-size:60px;"">+</div>","null","html-keyboard-response","398","476677","0.0-6.0-0.196","DIGA","1","m","rechts","58","","fixation","","","",""
"1631","img/0_300.png","70","image-keyboard-response","399","478309","0.0-6.0-1.196","DIGA","1","m","rechts","58","","","self","f","0","true"
"null","<div style=""font-size:60px;"">+</div>","null","html-keyboard-response","400","478610","0.0-6.0-0.197","DIGA","1","m","rechts","58","","fixation","","","",""
"1663","img/0_30.png","74","image-keyboard-response","401","480274","0.0-6.0-1.197","DIGA","1","m","rechts","58","","","self","j","0","true"
"null","<div style=""font-size:60px;"">+</div>","null","html-keyboard-response","402","480728","0.0-6.0-0.198","DIGA","1","m","rechts","58","","fixation","","","",""
"1633","img/0_90.png","74","image-keyboard-response","403","482362","0.0-6.0-1.198","DIGA","1","m","rechts","58","","","self","j","0","true"
"null","<div style=""font-size:60px;"">+</div>","null","html-keyboard-response","404","482765","0.0-6.0-0.199","DIGA","1","m","rechts","58","","fixation","","","",""
"2356","img/150_180.png","74","image-keyboard-response","405","485122","0.0-6.0-1.199","DIGA","1","m","rechts","58","","","self","j","150","true"
"null","<div style=""font-size:60px;"">+</div>","null","html-keyboard-response","406","485423","0.0-6.0-0.200","DIGA","1","m","rechts","58","","fixation","","","",""
"1863","img/30_240.png","74","image-keyboard-response","407","487288","0.0-6.0-1.200","DIGA","1","m","rechts","58","","","self","f","30","false"
"null","<div style=""font-size:60px;"">+</div>","null","html-keyboard-response","408","487740","0.0-6.0-0.201","DIGA","1","m","rechts","58","","fixation","","","",""
"1551","img/120_210.png","74","image-keyboard-response","409","489292","0.0-6.0-1.201","DIGA","1","m","rechts","58","","","self","j","120","true"
"null","<div style=""font-size:60px;"">+</div>","null","html-keyboard-response","410","489643","0.0-6.0-0.202","DIGA","1","m","rechts","58","","fixation","","","",""
"1568","img/0_210.png","70","image-keyboard-response","411","491212","0.0-6.0-1.202","DIGA","1","m","rechts","58","","","self","f","0","true"
"null","<div style=""font-size:60px;"">+</div>","null","html-keyboard-response","412","491613","0.0-6.0-0.203","DIGA","1","m","rechts","58","","fixation","","","",""
"2363","img/L60_180.png","70","image-keyboard-response","413","493976","0.0-6.0-1.203","DIGA","1","m","rechts","58","","","self","f","60","true"
"null","<div style=""font-size:60px;"">+</div>","null","html-keyboard-response","414","494432","0.0-6.0-0.204","DIGA","1","m","rechts","58","","fixation","","","",""
"1463","img/90_60.png","74","image-keyboard-response","415","495896","0.0-6.0-1.204","DIGA","1","m","rechts","58","","","self","j","90","true"
"null","<div style=""font-size:60px;"">+</div>","null","html-keyboard-response","416","496352","0.0-6.0-0.205","DIGA","1","m","rechts","58","","fixation","","","",""
"1149","img/0_150.png","74","image-keyboard-response","417","497501","0.0-6.0-1.205","DIGA","1","m","rechts","58","","","self","j","0","true"
"null","<div style=""font-size:60px;"">+</div>","null","html-keyboard-response","418","497903","0.0-6.0-0.206","DIGA","1","m","rechts","58","","fixation","","","",""
"1438","img/120_180.png","74","image-keyboard-response","419","499342","0.0-6.0-1.206","DIGA","1","m","rechts","58","","","self","j","120","true"
"null","<div style=""font-size:60px;"">+</div>","null","html-keyboard-response","420","499649","0.0-6.0-0.207","DIGA","1","m","rechts","58","","fixation","","","",""
"1579","img/30_60.png","74","image-keyboard-response","421","501228","0.0-6.0-1.207","DIGA","1","m","rechts","58","","","self","j","30","true"
"18645","<p>Du hast in 88% der Versuche korrekt entschieden.</p><p>Deine durchschnittliche Reaktionszeit war  1717ms.</p><p>Dr&uuml;cke eine beliebige Taste, um die Session zu beenden. Vielen Dank!</p>","72","html-keyboard-response","422","519875","0.0-7.0","DIGA","1","m","rechts","58","","","","","",""
