"rt","stimulus","key_press","trial_type","trial_index","time_elapsed","internal_node_id","subject","session","sex","handedness","age","responses","test_part","condition","correct_response","angle","correct"
"8316","<p>Mental Rotation Experiment.</p> <p>Dr&uuml;cke eine beliebige Taste, um anzufangen.</p>","72","html-keyboard-response","0","8321","0.0-0.0","DIGA","2","m","rechts","58","","","","","",""
"4866","","","survey-text","1","13188","0.0-1.0","DIGA","2","m","rechts","58","{""Q0"":""DIGA""}","","","","",""
"3532","","","survey-text","2","16720","0.0-2.0","DIGA","2","m","rechts","58","{""Q0"":""2""}","","","","",""
"4266","","","survey-multi-choice","3","20990","0.0-3.0","DIGA","2","m","rechts","58","{""Q0"":""m"",""Q1"":""rechts""}","","","","",""
"15782","","","survey-text","4","36773","0.0-4.0","DIGA","2","m","rechts","58","{""Q0"":""58""}","","","","",""
"32320","<p> Stell dir vor, dass du vor einem runden Tisch stehst, auf dem sich ein blauer Ball am Tischrand befindet. Entlang des Tischrands ist jeweils ein verschieden langer Pfeil. Nun bewegst du dich entlang dieses Pfeils bis an seine Spitze. Wenn du am Ende des Pfeils angekommen bist, schau zur Tischmitte. </p> <img src='img/90_180.png'></img> <br> <p>Entscheide dann, ob der Ball von deiner neuen (vorgestellten) Position links oder rechts von dir liegt.</p> <p>Dr&uuml;cke die <strong>'f'</strong>-Taste f&uuml;r links, die <strong>'j'</strong>-Taste f&uuml;r rechts.</p> <br><p> Das Bild wird jeweils 1 Sekunde lang pr&auml;sentiert. Du hast 3 Sekunden Zeit eine Entscheidung zu treffen.</p>","74","html-keyboard-response","5","69094","0.0-5.0","DIGA","2","m","rechts","58","","","","","",""
"null","<div style=""font-size:60px;"">+</div>","null","html-keyboard-response","6","70401","0.0-6.0-0.0","DIGA","2","m","rechts","58","","fixation","","","",""
"1768","img/0_270.png","70","image-keyboard-response","7","72170","0.0-6.0-1.0","DIGA","2","m","rechts","58","","","self","f","0","true"
"null","<div style=""font-size:60px;"">+</div>","null","html-keyboard-response","8","72525","0.0-6.0-0.1","DIGA","2","m","rechts","58","","fixation","","","",""
"1440","img/150_300.png","74","image-keyboard-response","9","73967","0.0-6.0-1.1","DIGA","2","m","rechts","58","","","self","j","150","true"
"null","<div style=""font-size:60px;"">+</div>","null","html-keyboard-response","10","74423","0.0-6.0-0.2","DIGA","2","m","rechts","58","","fixation","","","",""
"1540","img/120_180.png","74","image-keyboard-response","11","75964","0.0-6.0-1.2","DIGA","2","m","rechts","58","","","self","j","120","true"
"null","<div style=""font-size:60px;"">+</div>","null","html-keyboard-response","12","76419","0.0-6.0-0.3","DIGA","2","m","rechts","58","","fixation","","","",""
"1458","img/90_330.png","70","image-keyboard-response","13","77878","0.0-6.0-1.3","DIGA","2","m","rechts","58","","","self","f","90","true"
"null","<div style=""font-size:60px;"">+</div>","null","html-keyboard-response","14","78284","0.0-6.0-0.4","DIGA","2","m","rechts","58","","fixation","","","",""
"1677","img/120_90.png","70","image-keyboard-response","15","79961","0.0-6.0-1.4","DIGA","2","m","rechts","58","","","self","f","120","true"
"null","<div style=""font-size:60px;"">+</div>","null","html-keyboard-response","16","80367","0.0-6.0-0.5","DIGA","2","m","rechts","58","","fixation","","","",""
"1538","img/150_180.png","74","image-keyboard-response","17","81905","0.0-6.0-1.5","DIGA","2","m","rechts","58","","","self","j","150","true"
"null","<div style=""font-size:60px;"">+</div>","null","html-keyboard-response","18","82211","0.0-6.0-0.6","DIGA","2","m","rechts","58","","fixation","","","",""
"1379","img/150_90.png","70","image-keyboard-response","19","83591","0.0-6.0-1.6","DIGA","2","m","rechts","58","","","self","f","150","true"
"null","<div style=""font-size:60px;"">+</div>","null","html-keyboard-response","20","83944","0.0-6.0-0.7","DIGA","2","m","rechts","58","","fixation","","","",""
"1726","img/30_120.png","70","image-keyboard-response","21","85670","0.0-6.0-1.7","DIGA","2","m","rechts","58","","","self","j","30","false"
"null","<div style=""font-size:60px;"">+</div>","null","html-keyboard-response","22","86122","0.0-6.0-0.8","DIGA","2","m","rechts","58","","fixation","","","",""
"1444","img/0_150.png","74","image-keyboard-response","23","87567","0.0-6.0-1.8","DIGA","2","m","rechts","58","","","self","j","0","true"
"null","<div style=""font-size:60px;"">+</div>","null","html-keyboard-response","24","87868","0.0-6.0-0.9","DIGA","2","m","rechts","58","","fixation","","","",""
"1608","img/90_60.png","74","image-keyboard-response","25","89476","0.0-6.0-1.9","DIGA","2","m","rechts","58","","","self","j","90","true"
"null","<div style=""font-size:60px;"">+</div>","null","html-keyboard-response","26","89781","0.0-6.0-0.10","DIGA","2","m","rechts","58","","fixation","","","",""
"1430","img/120_150.png","70","image-keyboard-response","27","91211","0.0-6.0-1.10","DIGA","2","m","rechts","58","","","self","f","120","true"
"null","<div style=""font-size:60px;"">+</div>","null","html-keyboard-response","28","91617","0.0-6.0-0.11","DIGA","2","m","rechts","58","","fixation","","","",""
"1614","img/120_330.png","74","image-keyboard-response","29","93231","0.0-6.0-1.11","DIGA","2","m","rechts","58","","","self","f","120","false"
"null","<div style=""font-size:60px;"">+</div>","null","html-keyboard-response","30","93537","0.0-6.0-0.12","DIGA","2","m","rechts","58","","fixation","","","",""
"1684","img/30_300.png","70","image-keyboard-response","31","95221","0.0-6.0-1.12","DIGA","2","m","rechts","58","","","self","f","30","true"
"null","<div style=""font-size:60px;"">+</div>","null","html-keyboard-response","32","95522","0.0-6.0-0.13","DIGA","2","m","rechts","58","","fixation","","","",""
"1418","img/30_240.png","70","image-keyboard-response","33","96941","0.0-6.0-1.13","DIGA","2","m","rechts","58","","","self","f","30","true"
"null","<div style=""font-size:60px;"">+</div>","null","html-keyboard-response","34","97443","0.0-6.0-0.14","DIGA","2","m","rechts","58","","fixation","","","",""
"1413","img/L30_180.png","70","image-keyboard-response","35","98856","0.0-6.0-1.14","DIGA","2","m","rechts","58","","","self","f","30","true"
"null","<div style=""font-size:60px;"">+</div>","null","html-keyboard-response","36","99162","0.0-6.0-0.15","DIGA","2","m","rechts","58","","fixation","","","",""
"1409","img/L60_180.png","70","image-keyboard-response","37","100571","0.0-6.0-1.15","DIGA","2","m","rechts","58","","","self","f","60","true"
"null","<div style=""font-size:60px;"">+</div>","null","html-keyboard-response","38","100926","0.0-6.0-0.16","DIGA","2","m","rechts","58","","fixation","","","",""
"1500","img/120_30.png","70","image-keyboard-response","39","102428","0.0-6.0-1.16","DIGA","2","m","rechts","58","","","self","j","120","false"
"null","<div style=""font-size:60px;"">+</div>","null","html-keyboard-response","40","102782","0.0-6.0-0.17","DIGA","2","m","rechts","58","","fixation","","","",""
"1801","img/90_300.png","70","image-keyboard-response","41","104585","0.0-6.0-1.17","DIGA","2","m","rechts","58","","","self","f","90","true"
"null","<div style=""font-size:60px;"">+</div>","null","html-keyboard-response","42","104938","0.0-6.0-0.18","DIGA","2","m","rechts","58","","fixation","","","",""
"1548","img/0_300.png","70","image-keyboard-response","43","106487","0.0-6.0-1.18","DIGA","2","m","rechts","58","","","self","f","0","true"
"null","<div style=""font-size:60px;"">+</div>","null","html-keyboard-response","44","106938","0.0-6.0-0.19","DIGA","2","m","rechts","58","","fixation","","","",""
"1428","img/60_270.png","70","image-keyboard-response","45","108367","0.0-6.0-1.19","DIGA","2","m","rechts","58","","","self","f","60","true"
"null","<div style=""font-size:60px;"">+</div>","null","html-keyboard-response","46","108872","0.0-6.0-0.20","DIGA","2","m","rechts","58","","fixation","","","",""
"1555","img/30_270.png","70","image-keyboard-response","47","110428","0.0-6.0-1.20","DIGA","2","m","rechts","58","","","self","f","30","true"
"null","<div style=""font-size:60px;"">+</div>","null","html-keyboard-response","48","110880","0.0-6.0-0.21","DIGA","2","m","rechts","58","","fixation","","","",""
"1618","img/90_30.png","70","image-keyboard-response","49","112498","0.0-6.0-1.21","DIGA","2","m","rechts","58","","","self","j","90","false"
"null","<div style=""font-size:60px;"">+</div>","null","html-keyboard-response","50","112952","0.0-6.0-0.22","DIGA","2","m","rechts","58","","fixation","","","",""
"1449","img/30_180.png","74","image-keyboard-response","51","114401","0.0-6.0-1.22","DIGA","2","m","rechts","58","","","self","j","30","true"
"null","<div style=""font-size:60px;"">+</div>","null","html-keyboard-response","52","114902","0.0-6.0-0.23","DIGA","2","m","rechts","58","","fixation","","","",""
"1361","img/150_60.png","70","image-keyboard-response","53","116264","0.0-6.0-1.23","DIGA","2","m","rechts","58","","","self","f","150","true"
"null","<div style=""font-size:60px;"">+</div>","null","html-keyboard-response","54","116770","0.0-6.0-0.24","DIGA","2","m","rechts","58","","fixation","","","",""
"1190","img/L120_180.png","70","image-keyboard-response","55","117961","0.0-6.0-1.24","DIGA","2","m","rechts","58","","","self","f","120","true"
"null","<div style=""font-size:60px;"">+</div>","null","html-keyboard-response","56","118366","0.0-6.0-0.25","DIGA","2","m","rechts","58","","fixation","","","",""
"1374","img/90_240.png","74","image-keyboard-response","57","119741","0.0-6.0-1.25","DIGA","2","m","rechts","58","","","self","j","90","true"
"null","<div style=""font-size:60px;"">+</div>","null","html-keyboard-response","58","120045","0.0-6.0-0.26","DIGA","2","m","rechts","58","","fixation","","","",""
"1415","img/150_270.png","74","image-keyboard-response","59","121461","0.0-6.0-1.26","DIGA","2","m","rechts","58","","","self","j","150","true"
"null","<div style=""font-size:60px;"">+</div>","null","html-keyboard-response","60","121861","0.0-6.0-0.27","DIGA","2","m","rechts","58","","fixation","","","",""
"1307","img/60_150.png","70","image-keyboard-response","61","123170","0.0-6.0-1.27","DIGA","2","m","rechts","58","","","self","f","60","true"
"null","<div style=""font-size:60px;"">+</div>","null","html-keyboard-response","62","123624","0.0-6.0-0.28","DIGA","2","m","rechts","58","","fixation","","","",""
"1123","img/60_180.png","74","image-keyboard-response","63","124748","0.0-6.0-1.28","DIGA","2","m","rechts","58","","","self","j","60","true"
"null","<div style=""font-size:60px;"">+</div>","null","html-keyboard-response","64","125155","0.0-6.0-0.29","DIGA","2","m","rechts","58","","fixation","","","",""
"1358","img/90_150.png","70","image-keyboard-response","65","126513","0.0-6.0-1.29","DIGA","2","m","rechts","58","","","self","f","90","true"
"null","<div style=""font-size:60px;"">+</div>","null","html-keyboard-response","66","126969","0.0-6.0-0.30","DIGA","2","m","rechts","58","","fixation","","","",""
"1551","img/30_60.png","74","image-keyboard-response","67","128522","0.0-6.0-1.30","DIGA","2","m","rechts","58","","","self","j","30","true"
"null","<div style=""font-size:60px;"">+</div>","null","html-keyboard-response","68","128926","0.0-6.0-0.31","DIGA","2","m","rechts","58","","fixation","","","",""
"1147","img/60_30.png","74","image-keyboard-response","69","130076","0.0-6.0-1.31","DIGA","2","m","rechts","58","","","self","j","60","true"
"null","<div style=""font-size:60px;"">+</div>","null","html-keyboard-response","70","130381","0.0-6.0-0.32","DIGA","2","m","rechts","58","","fixation","","","",""
"1272","img/0_120.png","74","image-keyboard-response","71","131654","0.0-6.0-1.32","DIGA","2","m","rechts","58","","","self","j","0","true"
"null","<div style=""font-size:60px;"">+</div>","null","html-keyboard-response","72","131960","0.0-6.0-0.33","DIGA","2","m","rechts","58","","fixation","","","",""
"1708","img/90_180.png","74","image-keyboard-response","73","133668","0.0-6.0-1.33","DIGA","2","m","rechts","58","","","self","j","90","true"
"null","<div style=""font-size:60px;"">+</div>","null","html-keyboard-response","74","134172","0.0-6.0-0.34","DIGA","2","m","rechts","58","","fixation","","","",""
"1440","img/0_210.png","70","image-keyboard-response","75","135612","0.0-6.0-1.34","DIGA","2","m","rechts","58","","","self","f","0","true"
"null","<div style=""font-size:60px;"">+</div>","null","html-keyboard-response","76","136117","0.0-6.0-0.35","DIGA","2","m","rechts","58","","fixation","","","",""
"1199","img/L90_180.png","70","image-keyboard-response","77","137317","0.0-6.0-1.35","DIGA","2","m","rechts","58","","","self","f","90","true"
"null","<div style=""font-size:60px;"">+</div>","null","html-keyboard-response","78","137672","0.0-6.0-0.36","DIGA","2","m","rechts","58","","fixation","","","",""
"1492","img/30_90.png","74","image-keyboard-response","79","139165","0.0-6.0-1.36","DIGA","2","m","rechts","58","","","self","j","30","true"
"null","<div style=""font-size:60px;"">+</div>","null","html-keyboard-response","80","139669","0.0-6.0-0.37","DIGA","2","m","rechts","58","","fixation","","","",""
"1512","img/0_60.png","74","image-keyboard-response","81","141182","0.0-6.0-1.37","DIGA","2","m","rechts","58","","","self","j","0","true"
"null","<div style=""font-size:60px;"">+</div>","null","html-keyboard-response","82","141688","0.0-6.0-0.38","DIGA","2","m","rechts","58","","fixation","","","",""
"1416","img/60_210.png","74","image-keyboard-response","83","143105","0.0-6.0-1.38","DIGA","2","m","rechts","58","","","self","j","60","true"
"null","<div style=""font-size:60px;"">+</div>","null","html-keyboard-response","84","143462","0.0-6.0-0.39","DIGA","2","m","rechts","58","","fixation","","","",""
"1367","img/150_120.png","70","image-keyboard-response","85","144830","0.0-6.0-1.39","DIGA","2","m","rechts","58","","","self","f","150","true"
"null","<div style=""font-size:60px;"">+</div>","null","html-keyboard-response","86","145332","0.0-6.0-0.40","DIGA","2","m","rechts","58","","fixation","","","",""
"1396","img/0_240.png","70","image-keyboard-response","87","146728","0.0-6.0-1.40","DIGA","2","m","rechts","58","","","self","f","0","true"
"null","<div style=""font-size:60px;"">+</div>","null","html-keyboard-response","88","147230","0.0-6.0-0.41","DIGA","2","m","rechts","58","","fixation","","","",""
"1394","img/90_120.png","70","image-keyboard-response","89","148625","0.0-6.0-1.41","DIGA","2","m","rechts","58","","","self","f","90","true"
"null","<div style=""font-size:60px;"">+</div>","null","html-keyboard-response","90","148979","0.0-6.0-0.42","DIGA","2","m","rechts","58","","fixation","","","",""
"1345","img/120_210.png","74","image-keyboard-response","91","150324","0.0-6.0-1.42","DIGA","2","m","rechts","58","","","self","j","120","true"
"null","<div style=""font-size:60px;"">+</div>","null","html-keyboard-response","92","150730","0.0-6.0-0.43","DIGA","2","m","rechts","58","","fixation","","","",""
"1482","img/0_30.png","74","image-keyboard-response","93","152212","0.0-6.0-1.43","DIGA","2","m","rechts","58","","","self","j","0","true"
"null","<div style=""font-size:60px;"">+</div>","null","html-keyboard-response","94","152617","0.0-6.0-0.44","DIGA","2","m","rechts","58","","fixation","","","",""
"1387","img/90_210.png","74","image-keyboard-response","95","154006","0.0-6.0-1.44","DIGA","2","m","rechts","58","","","self","j","90","true"
"null","<div style=""font-size:60px;"">+</div>","null","html-keyboard-response","96","154508","0.0-6.0-0.45","DIGA","2","m","rechts","58","","fixation","","","",""
"1236","img/150_240.png","74","image-keyboard-response","97","155744","0.0-6.0-1.45","DIGA","2","m","rechts","58","","","self","j","150","true"
"null","<div style=""font-size:60px;"">+</div>","null","html-keyboard-response","98","156248","0.0-6.0-0.46","DIGA","2","m","rechts","58","","fixation","","","",""
"1359","img/60_90.png","70","image-keyboard-response","99","157609","0.0-6.0-1.46","DIGA","2","m","rechts","58","","","self","j","60","false"
"null","<div style=""font-size:60px;"">+</div>","null","html-keyboard-response","100","158063","0.0-6.0-0.47","DIGA","2","m","rechts","58","","fixation","","","",""
"1702","img/60_330.png","70","image-keyboard-response","101","159767","0.0-6.0-1.47","DIGA","2","m","rechts","58","","","self","f","60","true"
"null","<div style=""font-size:60px;"">+</div>","null","html-keyboard-response","102","160123","0.0-6.0-0.48","DIGA","2","m","rechts","58","","fixation","","","",""
"1398","img/0_90.png","74","image-keyboard-response","103","161522","0.0-6.0-1.48","DIGA","2","m","rechts","58","","","self","j","0","true"
"null","<div style=""font-size:60px;"">+</div>","null","html-keyboard-response","104","161974","0.0-6.0-0.49","DIGA","2","m","rechts","58","","fixation","","","",""
"1576","img/L150_180.png","70","image-keyboard-response","105","163551","0.0-6.0-1.49","DIGA","2","m","rechts","58","","","self","f","150","true"
"null","<div style=""font-size:60px;"">+</div>","null","html-keyboard-response","106","163907","0.0-6.0-0.50","DIGA","2","m","rechts","58","","fixation","","","",""
"1507","img/0_330.png","70","image-keyboard-response","107","165415","0.0-6.0-1.50","DIGA","2","m","rechts","58","","","self","f","0","true"
"null","<div style=""font-size:60px;"">+</div>","null","html-keyboard-response","108","165771","0.0-6.0-0.51","DIGA","2","m","rechts","58","","fixation","","","",""
"1396","img/120_270.png","74","image-keyboard-response","109","167167","0.0-6.0-1.51","DIGA","2","m","rechts","58","","","self","j","120","true"
"null","<div style=""font-size:60px;"">+</div>","null","html-keyboard-response","110","167523","0.0-6.0-0.52","DIGA","2","m","rechts","58","","fixation","","","",""
"2012","img/30_90.png","74","image-keyboard-response","111","169535","0.0-6.0-1.52","DIGA","2","m","rechts","58","","","self","j","30","true"
"null","<div style=""font-size:60px;"">+</div>","null","html-keyboard-response","112","169937","0.0-6.0-0.53","DIGA","2","m","rechts","58","","fixation","","","",""
"1867","img/90_30.png","74","image-keyboard-response","113","171806","0.0-6.0-1.53","DIGA","2","m","rechts","58","","","self","j","90","true"
"null","<div style=""font-size:60px;"">+</div>","null","html-keyboard-response","114","172260","0.0-6.0-0.54","DIGA","2","m","rechts","58","","fixation","","","",""
"1544","img/0_300.png","70","image-keyboard-response","115","173804","0.0-6.0-1.54","DIGA","2","m","rechts","58","","","self","f","0","true"
"null","<div style=""font-size:60px;"">+</div>","null","html-keyboard-response","116","174209","0.0-6.0-0.55","DIGA","2","m","rechts","58","","fixation","","","",""
"1431","img/90_210.png","74","image-keyboard-response","117","175640","0.0-6.0-1.55","DIGA","2","m","rechts","58","","","self","j","90","true"
"null","<div style=""font-size:60px;"">+</div>","null","html-keyboard-response","118","176044","0.0-6.0-0.56","DIGA","2","m","rechts","58","","fixation","","","",""
"1602","img/30_270.png","70","image-keyboard-response","119","177646","0.0-6.0-1.56","DIGA","2","m","rechts","58","","","self","f","30","true"
"null","<div style=""font-size:60px;"">+</div>","null","html-keyboard-response","120","178050","0.0-6.0-0.57","DIGA","2","m","rechts","58","","fixation","","","",""
"1433","img/L90_180.png","70","image-keyboard-response","121","179483","0.0-6.0-1.57","DIGA","2","m","rechts","58","","","self","f","90","true"
"null","<div style=""font-size:60px;"">+</div>","null","html-keyboard-response","122","179788","0.0-6.0-0.58","DIGA","2","m","rechts","58","","fixation","","","",""
"1562","img/90_60.png","74","image-keyboard-response","123","181350","0.0-6.0-1.58","DIGA","2","m","rechts","58","","","self","j","90","true"
"null","<div style=""font-size:60px;"">+</div>","null","html-keyboard-response","124","181705","0.0-6.0-0.59","DIGA","2","m","rechts","58","","fixation","","","",""
"1465","img/60_180.png","74","image-keyboard-response","125","183171","0.0-6.0-1.59","DIGA","2","m","rechts","58","","","self","j","60","true"
"null","<div style=""font-size:60px;"">+</div>","null","html-keyboard-response","126","183572","0.0-6.0-0.60","DIGA","2","m","rechts","58","","fixation","","","",""
"1504","img/30_120.png","74","image-keyboard-response","127","185077","0.0-6.0-1.60","DIGA","2","m","rechts","58","","","self","j","30","true"
"null","<div style=""font-size:60px;"">+</div>","null","html-keyboard-response","128","185533","0.0-6.0-0.61","DIGA","2","m","rechts","58","","fixation","","","",""
"1417","img/150_270.png","74","image-keyboard-response","129","186951","0.0-6.0-1.61","DIGA","2","m","rechts","58","","","self","j","150","true"
"null","<div style=""font-size:60px;"">+</div>","null","html-keyboard-response","130","187402","0.0-6.0-0.62","DIGA","2","m","rechts","58","","fixation","","","",""
"1234","img/L120_180.png","70","image-keyboard-response","131","188638","0.0-6.0-1.62","DIGA","2","m","rechts","58","","","self","f","120","true"
"null","<div style=""font-size:60px;"">+</div>","null","html-keyboard-response","132","189142","0.0-6.0-0.63","DIGA","2","m","rechts","58","","fixation","","","",""
"1160","img/0_30.png","74","image-keyboard-response","133","190304","0.0-6.0-1.63","DIGA","2","m","rechts","58","","","self","j","0","true"
"null","<div style=""font-size:60px;"">+</div>","null","html-keyboard-response","134","190659","0.0-6.0-0.64","DIGA","2","m","rechts","58","","fixation","","","",""
"1528","img/120_30.png","74","image-keyboard-response","135","192188","0.0-6.0-1.64","DIGA","2","m","rechts","58","","","self","j","120","true"
"null","<div style=""font-size:60px;"">+</div>","null","html-keyboard-response","136","192690","0.0-6.0-0.65","DIGA","2","m","rechts","58","","fixation","","","",""
"1239","img/L60_180.png","70","image-keyboard-response","137","193929","0.0-6.0-1.65","DIGA","2","m","rechts","58","","","self","f","60","true"
"null","<div style=""font-size:60px;"">+</div>","null","html-keyboard-response","138","194280","0.0-6.0-0.66","DIGA","2","m","rechts","58","","fixation","","","",""
"1531","img/150_300.png","70","image-keyboard-response","139","195811","0.0-6.0-1.66","DIGA","2","m","rechts","58","","","self","j","150","false"
"null","<div style=""font-size:60px;"">+</div>","null","html-keyboard-response","140","196116","0.0-6.0-0.67","DIGA","2","m","rechts","58","","fixation","","","",""
"1956","img/120_270.png","70","image-keyboard-response","141","198072","0.0-6.0-1.67","DIGA","2","m","rechts","58","","","self","j","120","false"
"null","<div style=""font-size:60px;"">+</div>","null","html-keyboard-response","142","198477","0.0-6.0-0.68","DIGA","2","m","rechts","58","","fixation","","","",""
"2249","img/0_240.png","74","image-keyboard-response","143","200727","0.0-6.0-1.68","DIGA","2","m","rechts","58","","","self","f","0","false"
"null","<div style=""font-size:60px;"">+</div>","null","html-keyboard-response","144","201232","0.0-6.0-0.69","DIGA","2","m","rechts","58","","fixation","","","",""
"1497","img/120_180.png","74","image-keyboard-response","145","202731","0.0-6.0-1.69","DIGA","2","m","rechts","58","","","self","j","120","true"
"null","<div style=""font-size:60px;"">+</div>","null","html-keyboard-response","146","203085","0.0-6.0-0.70","DIGA","2","m","rechts","58","","fixation","","","",""
"1139","img/60_30.png","70","image-keyboard-response","147","204224","0.0-6.0-1.70","DIGA","2","m","rechts","58","","","self","j","60","false"
"null","<div style=""font-size:60px;"">+</div>","null","html-keyboard-response","148","204526","0.0-6.0-0.71","DIGA","2","m","rechts","58","","fixation","","","",""
"1475","img/60_90.png","70","image-keyboard-response","149","206001","0.0-6.0-1.71","DIGA","2","m","rechts","58","","","self","j","60","false"
"null","<div style=""font-size:60px;"">+</div>","null","html-keyboard-response","150","206307","0.0-6.0-0.72","DIGA","2","m","rechts","58","","fixation","","","",""
"1223","img/60_210.png","74","image-keyboard-response","151","207530","0.0-6.0-1.72","DIGA","2","m","rechts","58","","","self","j","60","true"
"null","<div style=""font-size:60px;"">+</div>","null","html-keyboard-response","152","207836","0.0-6.0-0.73","DIGA","2","m","rechts","58","","fixation","","","",""
"1510","img/90_330.png","70","image-keyboard-response","153","209347","0.0-6.0-1.73","DIGA","2","m","rechts","58","","","self","f","90","true"
"null","<div style=""font-size:60px;"">+</div>","null","html-keyboard-response","154","209650","0.0-6.0-0.74","DIGA","2","m","rechts","58","","fixation","","","",""
"1456","img/150_240.png","74","image-keyboard-response","155","211106","0.0-6.0-1.74","DIGA","2","m","rechts","58","","","self","j","150","true"
"null","<div style=""font-size:60px;"">+</div>","null","html-keyboard-response","156","211462","0.0-6.0-0.75","DIGA","2","m","rechts","58","","fixation","","","",""
"1543","img/0_210.png","70","image-keyboard-response","157","213005","0.0-6.0-1.75","DIGA","2","m","rechts","58","","","self","f","0","true"
"null","<div style=""font-size:60px;"">+</div>","null","html-keyboard-response","158","213510","0.0-6.0-0.76","DIGA","2","m","rechts","58","","fixation","","","",""
"1519","img/90_300.png","74","image-keyboard-response","159","215030","0.0-6.0-1.76","DIGA","2","m","rechts","58","","","self","f","90","false"
"null","<div style=""font-size:60px;"">+</div>","null","html-keyboard-response","160","215332","0.0-6.0-0.77","DIGA","2","m","rechts","58","","fixation","","","",""
"1622","img/30_180.png","74","image-keyboard-response","161","216954","0.0-6.0-1.77","DIGA","2","m","rechts","58","","","self","j","30","true"
"null","<div style=""font-size:60px;"">+</div>","null","html-keyboard-response","162","217260","0.0-6.0-0.78","DIGA","2","m","rechts","58","","fixation","","","",""
"1554","img/30_240.png","74","image-keyboard-response","163","218814","0.0-6.0-1.78","DIGA","2","m","rechts","58","","","self","f","30","false"
"null","<div style=""font-size:60px;"">+</div>","null","html-keyboard-response","164","219215","0.0-6.0-0.79","DIGA","2","m","rechts","58","","fixation","","","",""
"1362","img/150_60.png","70","image-keyboard-response","165","220578","0.0-6.0-1.79","DIGA","2","m","rechts","58","","","self","f","150","true"
"null","<div style=""font-size:60px;"">+</div>","null","html-keyboard-response","166","220934","0.0-6.0-0.80","DIGA","2","m","rechts","58","","fixation","","","",""
"1622","img/90_150.png","70","image-keyboard-response","167","222557","0.0-6.0-1.80","DIGA","2","m","rechts","58","","","self","f","90","true"
"null","<div style=""font-size:60px;"">+</div>","null","html-keyboard-response","168","223063","0.0-6.0-0.81","DIGA","2","m","rechts","58","","fixation","","","",""
"1379","img/120_150.png","70","image-keyboard-response","169","224443","0.0-6.0-1.81","DIGA","2","m","rechts","58","","","self","f","120","true"
"null","<div style=""font-size:60px;"">+</div>","null","html-keyboard-response","170","224848","0.0-6.0-0.82","DIGA","2","m","rechts","58","","fixation","","","",""
"1898","img/60_270.png","70","image-keyboard-response","171","226746","0.0-6.0-1.82","DIGA","2","m","rechts","58","","","self","f","60","true"
"null","<div style=""font-size:60px;"">+</div>","null","html-keyboard-response","172","227051","0.0-6.0-0.83","DIGA","2","m","rechts","58","","fixation","","","",""
"1440","img/0_330.png","70","image-keyboard-response","173","228491","0.0-6.0-1.83","DIGA","2","m","rechts","58","","","self","f","0","true"
"null","<div style=""font-size:60px;"">+</div>","null","html-keyboard-response","174","228898","0.0-6.0-0.84","DIGA","2","m","rechts","58","","fixation","","","",""
"1127","img/0_150.png","74","image-keyboard-response","175","230025","0.0-6.0-1.84","DIGA","2","m","rechts","58","","","self","j","0","true"
"null","<div style=""font-size:60px;"">+</div>","null","html-keyboard-response","176","230527","0.0-6.0-0.85","DIGA","2","m","rechts","58","","fixation","","","",""
"1836","img/30_300.png","70","image-keyboard-response","177","232365","0.0-6.0-1.85","DIGA","2","m","rechts","58","","","self","f","30","true"
"null","<div style=""font-size:60px;"">+</div>","null","html-keyboard-response","178","232868","0.0-6.0-0.86","DIGA","2","m","rechts","58","","fixation","","","",""
"1454","img/L30_180.png","70","image-keyboard-response","179","234322","0.0-6.0-1.86","DIGA","2","m","rechts","58","","","self","f","30","true"
"null","<div style=""font-size:60px;"">+</div>","null","html-keyboard-response","180","234829","0.0-6.0-0.87","DIGA","2","m","rechts","58","","fixation","","","",""
"1509","img/90_240.png","74","image-keyboard-response","181","236338","0.0-6.0-1.87","DIGA","2","m","rechts","58","","","self","j","90","true"
"null","<div style=""font-size:60px;"">+</div>","null","html-keyboard-response","182","236691","0.0-6.0-0.88","DIGA","2","m","rechts","58","","fixation","","","",""
"1319","img/0_60.png","74","image-keyboard-response","183","238011","0.0-6.0-1.88","DIGA","2","m","rechts","58","","","self","j","0","true"
"null","<div style=""font-size:60px;"">+</div>","null","html-keyboard-response","184","238312","0.0-6.0-0.89","DIGA","2","m","rechts","58","","fixation","","","",""
"1719","img/150_90.png","70","image-keyboard-response","185","240032","0.0-6.0-1.89","DIGA","2","m","rechts","58","","","self","f","150","true"
"null","<div style=""font-size:60px;"">+</div>","null","html-keyboard-response","186","240434","0.0-6.0-0.90","DIGA","2","m","rechts","58","","fixation","","","",""
"1318","img/120_210.png","74","image-keyboard-response","187","241752","0.0-6.0-1.90","DIGA","2","m","rechts","58","","","self","j","120","true"
"null","<div style=""font-size:60px;"">+</div>","null","html-keyboard-response","188","242108","0.0-6.0-0.91","DIGA","2","m","rechts","58","","fixation","","","",""
"1593","img/L150_180.png","70","image-keyboard-response","189","243701","0.0-6.0-1.91","DIGA","2","m","rechts","58","","","self","f","150","true"
"null","<div style=""font-size:60px;"">+</div>","null","html-keyboard-response","190","244008","0.0-6.0-0.92","DIGA","2","m","rechts","58","","fixation","","","",""
"1457","img/0_90.png","74","image-keyboard-response","191","245466","0.0-6.0-1.92","DIGA","2","m","rechts","58","","","self","j","0","true"
"null","<div style=""font-size:60px;"">+</div>","null","html-keyboard-response","192","245968","0.0-6.0-0.93","DIGA","2","m","rechts","58","","fixation","","","",""
"1510","img/120_330.png","70","image-keyboard-response","193","247478","0.0-6.0-1.93","DIGA","2","m","rechts","58","","","self","f","120","true"
"null","<div style=""font-size:60px;"">+</div>","null","html-keyboard-response","194","247784","0.0-6.0-0.94","DIGA","2","m","rechts","58","","fixation","","","",""
"1604","img/60_150.png","70","image-keyboard-response","195","249390","0.0-6.0-1.94","DIGA","2","m","rechts","58","","","self","f","60","true"
"null","<div style=""font-size:60px;"">+</div>","null","html-keyboard-response","196","249891","0.0-6.0-0.95","DIGA","2","m","rechts","58","","fixation","","","",""
"1550","img/60_330.png","70","image-keyboard-response","197","251441","0.0-6.0-1.95","DIGA","2","m","rechts","58","","","self","f","60","true"
"null","<div style=""font-size:60px;"">+</div>","null","html-keyboard-response","198","251794","0.0-6.0-0.96","DIGA","2","m","rechts","58","","fixation","","","",""
"1668","img/90_180.png","74","image-keyboard-response","199","253463","0.0-6.0-1.96","DIGA","2","m","rechts","58","","","self","j","90","true"
"null","<div style=""font-size:60px;"">+</div>","null","html-keyboard-response","200","253920","0.0-6.0-0.97","DIGA","2","m","rechts","58","","fixation","","","",""
"1335","img/90_120.png","70","image-keyboard-response","201","255255","0.0-6.0-1.97","DIGA","2","m","rechts","58","","","self","f","90","true"
"null","<div style=""font-size:60px;"">+</div>","null","html-keyboard-response","202","255658","0.0-6.0-0.98","DIGA","2","m","rechts","58","","fixation","","","",""
"1458","img/0_270.png","70","image-keyboard-response","203","257116","0.0-6.0-1.98","DIGA","2","m","rechts","58","","","self","f","0","true"
"null","<div style=""font-size:60px;"">+</div>","null","html-keyboard-response","204","257520","0.0-6.0-0.99","DIGA","2","m","rechts","58","","fixation","","","",""
"2261","img/150_120.png","70","image-keyboard-response","205","259781","0.0-6.0-1.99","DIGA","2","m","rechts","58","","","self","f","150","true"
"null","<div style=""font-size:60px;"">+</div>","null","html-keyboard-response","206","260084","0.0-6.0-0.100","DIGA","2","m","rechts","58","","fixation","","","",""
"1553","img/150_180.png","74","image-keyboard-response","207","261637","0.0-6.0-1.100","DIGA","2","m","rechts","58","","","self","j","150","true"
"null","<div style=""font-size:60px;"">+</div>","null","html-keyboard-response","208","262138","0.0-6.0-0.101","DIGA","2","m","rechts","58","","fixation","","","",""
"1557","img/0_120.png","74","image-keyboard-response","209","263696","0.0-6.0-1.101","DIGA","2","m","rechts","58","","","self","j","0","true"
"null","<div style=""font-size:60px;"">+</div>","null","html-keyboard-response","210","264047","0.0-6.0-0.102","DIGA","2","m","rechts","58","","fixation","","","",""
"1485","img/30_60.png","74","image-keyboard-response","211","265533","0.0-6.0-1.102","DIGA","2","m","rechts","58","","","self","j","30","true"
"null","<div style=""font-size:60px;"">+</div>","null","html-keyboard-response","212","265933","0.0-6.0-0.103","DIGA","2","m","rechts","58","","fixation","","","",""
"1433","img/120_90.png","70","image-keyboard-response","213","267368","0.0-6.0-1.103","DIGA","2","m","rechts","58","","","self","f","120","true"
"null","<div style=""font-size:60px;"">+</div>","null","html-keyboard-response","214","267721","0.0-6.0-0.104","DIGA","2","m","rechts","58","","fixation","","","",""
"1435","img/30_180.png","74","image-keyboard-response","215","269157","0.0-6.0-1.104","DIGA","2","m","rechts","58","","","self","j","30","true"
"null","<div style=""font-size:60px;"">+</div>","null","html-keyboard-response","216","269660","0.0-6.0-0.105","DIGA","2","m","rechts","58","","fixation","","","",""
"1644","img/120_30.png","74","image-keyboard-response","217","271304","0.0-6.0-1.105","DIGA","2","m","rechts","58","","","self","j","120","true"
"null","<div style=""font-size:60px;"">+</div>","null","html-keyboard-response","218","271810","0.0-6.0-0.106","DIGA","2","m","rechts","58","","fixation","","","",""
"1534","img/150_180.png","74","image-keyboard-response","219","273345","0.0-6.0-1.106","DIGA","2","m","rechts","58","","","self","j","150","true"
"null","<div style=""font-size:60px;"">+</div>","null","html-keyboard-response","220","273698","0.0-6.0-0.107","DIGA","2","m","rechts","58","","fixation","","","",""
"1439","img/0_210.png","70","image-keyboard-response","221","275137","0.0-6.0-1.107","DIGA","2","m","rechts","58","","","self","f","0","true"
"null","<div style=""font-size:60px;"">+</div>","null","html-keyboard-response","222","275638","0.0-6.0-0.108","DIGA","2","m","rechts","58","","fixation","","","",""
"1299","img/90_210.png","74","image-keyboard-response","223","276938","0.0-6.0-1.108","DIGA","2","m","rechts","58","","","self","j","90","true"
"null","<div style=""font-size:60px;"">+</div>","null","html-keyboard-response","224","277240","0.0-6.0-0.109","DIGA","2","m","rechts","58","","fixation","","","",""
"1466","img/L150_180.png","70","image-keyboard-response","225","278706","0.0-6.0-1.109","DIGA","2","m","rechts","58","","","self","f","150","true"
"null","<div style=""font-size:60px;"">+</div>","null","html-keyboard-response","226","279212","0.0-6.0-0.110","DIGA","2","m","rechts","58","","fixation","","","",""
"1241","img/120_180.png","74","image-keyboard-response","227","280453","0.0-6.0-1.110","DIGA","2","m","rechts","58","","","self","j","120","true"
"null","<div style=""font-size:60px;"">+</div>","null","html-keyboard-response","228","280857","0.0-6.0-0.111","DIGA","2","m","rechts","58","","fixation","","","",""
"1522","img/L30_180.png","70","image-keyboard-response","229","282379","0.0-6.0-1.111","DIGA","2","m","rechts","58","","","self","f","30","true"
"null","<div style=""font-size:60px;"">+</div>","null","html-keyboard-response","230","282830","0.0-6.0-0.112","DIGA","2","m","rechts","58","","fixation","","","",""
"1337","img/90_240.png","74","image-keyboard-response","231","284168","0.0-6.0-1.112","DIGA","2","m","rechts","58","","","self","j","90","true"
"null","<div style=""font-size:60px;"">+</div>","null","html-keyboard-response","232","284472","0.0-6.0-0.113","DIGA","2","m","rechts","58","","fixation","","","",""
"1240","img/120_330.png","70","image-keyboard-response","233","285713","0.0-6.0-1.113","DIGA","2","m","rechts","58","","","self","f","120","true"
"null","<div style=""font-size:60px;"">+</div>","null","html-keyboard-response","234","286067","0.0-6.0-0.114","DIGA","2","m","rechts","58","","fixation","","","",""
"1800","img/150_300.png","74","image-keyboard-response","235","287868","0.0-6.0-1.114","DIGA","2","m","rechts","58","","","self","j","150","true"
"null","<div style=""font-size:60px;"">+</div>","null","html-keyboard-response","236","288172","0.0-6.0-0.115","DIGA","2","m","rechts","58","","fixation","","","",""
"1622","img/150_240.png","74","image-keyboard-response","237","289795","0.0-6.0-1.115","DIGA","2","m","rechts","58","","","self","j","150","true"
"null","<div style=""font-size:60px;"">+</div>","null","html-keyboard-response","238","290301","0.0-6.0-0.116","DIGA","2","m","rechts","58","","fixation","","","",""
"1216","img/60_30.png","70","image-keyboard-response","239","291517","0.0-6.0-1.116","DIGA","2","m","rechts","58","","","self","j","60","false"
"null","<div style=""font-size:60px;"">+</div>","null","html-keyboard-response","240","292023","0.0-6.0-0.117","DIGA","2","m","rechts","58","","fixation","","","",""
"1083","img/60_180.png","74","image-keyboard-response","241","293108","0.0-6.0-1.117","DIGA","2","m","rechts","58","","","self","j","60","true"
"null","<div style=""font-size:60px;"">+</div>","null","html-keyboard-response","242","293509","0.0-6.0-0.118","DIGA","2","m","rechts","58","","fixation","","","",""
"1458","img/30_60.png","74","image-keyboard-response","243","294969","0.0-6.0-1.118","DIGA","2","m","rechts","58","","","self","j","30","true"
"null","<div style=""font-size:60px;"">+</div>","null","html-keyboard-response","244","295471","0.0-6.0-0.119","DIGA","2","m","rechts","58","","fixation","","","",""
"1130","img/90_30.png","74","image-keyboard-response","245","296602","0.0-6.0-1.119","DIGA","2","m","rechts","58","","","self","j","90","true"
"null","<div style=""font-size:60px;"">+</div>","null","html-keyboard-response","246","296957","0.0-6.0-0.120","DIGA","2","m","rechts","58","","fixation","","","",""
"1386","img/L60_180.png","70","image-keyboard-response","247","298344","0.0-6.0-1.120","DIGA","2","m","rechts","58","","","self","f","60","true"
"null","<div style=""font-size:60px;"">+</div>","null","html-keyboard-response","248","298746","0.0-6.0-0.121","DIGA","2","m","rechts","58","","fixation","","","",""
"1537","img/0_270.png","70","image-keyboard-response","249","300284","0.0-6.0-1.121","DIGA","2","m","rechts","58","","","self","f","0","true"
"null","<div style=""font-size:60px;"">+</div>","null","html-keyboard-response","250","300637","0.0-6.0-0.122","DIGA","2","m","rechts","58","","fixation","","","",""
"1911","img/60_270.png","74","image-keyboard-response","251","302549","0.0-6.0-1.122","DIGA","2","m","rechts","58","","","self","f","60","false"
"null","<div style=""font-size:60px;"">+</div>","null","html-keyboard-response","252","303005","0.0-6.0-0.123","DIGA","2","m","rechts","58","","fixation","","","",""
"1454","img/30_90.png","74","image-keyboard-response","253","304459","0.0-6.0-1.123","DIGA","2","m","rechts","58","","","self","j","30","true"
"null","<div style=""font-size:60px;"">+</div>","null","html-keyboard-response","254","304910","0.0-6.0-0.124","DIGA","2","m","rechts","58","","fixation","","","",""
"1455","img/120_150.png","70","image-keyboard-response","255","306365","0.0-6.0-1.124","DIGA","2","m","rechts","58","","","self","f","120","true"
"null","<div style=""font-size:60px;"">+</div>","null","html-keyboard-response","256","306668","0.0-6.0-0.125","DIGA","2","m","rechts","58","","fixation","","","",""
"1295","img/L90_180.png","70","image-keyboard-response","257","307964","0.0-6.0-1.125","DIGA","2","m","rechts","58","","","self","f","90","true"
"null","<div style=""font-size:60px;"">+</div>","null","html-keyboard-response","258","308416","0.0-6.0-0.126","DIGA","2","m","rechts","58","","fixation","","","",""
"1833","img/60_150.png","70","image-keyboard-response","259","310249","0.0-6.0-1.126","DIGA","2","m","rechts","58","","","self","f","60","true"
"null","<div style=""font-size:60px;"">+</div>","null","html-keyboard-response","260","310603","0.0-6.0-0.127","DIGA","2","m","rechts","58","","fixation","","","",""
"1728","img/60_330.png","70","image-keyboard-response","261","312332","0.0-6.0-1.127","DIGA","2","m","rechts","58","","","self","f","60","true"
"null","<div style=""font-size:60px;"">+</div>","null","html-keyboard-response","262","312837","0.0-6.0-0.128","DIGA","2","m","rechts","58","","fixation","","","",""
"1637","img/30_270.png","70","image-keyboard-response","263","314475","0.0-6.0-1.128","DIGA","2","m","rechts","58","","","self","f","30","true"
"null","<div style=""font-size:60px;"">+</div>","null","html-keyboard-response","264","314927","0.0-6.0-0.129","DIGA","2","m","rechts","58","","fixation","","","",""
"1101","img/0_120.png","74","image-keyboard-response","265","316029","0.0-6.0-1.129","DIGA","2","m","rechts","58","","","self","j","0","true"
"null","<div style=""font-size:60px;"">+</div>","null","html-keyboard-response","266","316533","0.0-6.0-0.130","DIGA","2","m","rechts","58","","fixation","","","",""
"1590","img/90_300.png","74","image-keyboard-response","267","318123","0.0-6.0-1.130","DIGA","2","m","rechts","58","","","self","f","90","false"
"null","<div style=""font-size:60px;"">+</div>","null","html-keyboard-response","268","318480","0.0-6.0-0.131","DIGA","2","m","rechts","58","","fixation","","","",""
"1500","img/150_270.png","70","image-keyboard-response","269","319980","0.0-6.0-1.131","DIGA","2","m","rechts","58","","","self","j","150","false"
"null","<div style=""font-size:60px;"">+</div>","null","html-keyboard-response","270","320483","0.0-6.0-0.132","DIGA","2","m","rechts","58","","fixation","","","",""
"1587","img/90_120.png","70","image-keyboard-response","271","322071","0.0-6.0-1.132","DIGA","2","m","rechts","58","","","self","f","90","true"
"null","<div style=""font-size:60px;"">+</div>","null","html-keyboard-response","272","322427","0.0-6.0-0.133","DIGA","2","m","rechts","58","","fixation","","","",""
"1870","img/30_300.png","70","image-keyboard-response","273","324297","0.0-6.0-1.133","DIGA","2","m","rechts","58","","","self","f","30","true"
"null","<div style=""font-size:60px;"">+</div>","null","html-keyboard-response","274","324703","0.0-6.0-0.134","DIGA","2","m","rechts","58","","fixation","","","",""
"1593","img/30_120.png","74","image-keyboard-response","275","326297","0.0-6.0-1.134","DIGA","2","m","rechts","58","","","self","j","30","true"
"null","<div style=""font-size:60px;"">+</div>","null","html-keyboard-response","276","326750","0.0-6.0-0.135","DIGA","2","m","rechts","58","","fixation","","","",""
"1652","img/150_120.png","70","image-keyboard-response","277","328403","0.0-6.0-1.135","DIGA","2","m","rechts","58","","","self","f","150","true"
"null","<div style=""font-size:60px;"">+</div>","null","html-keyboard-response","278","328859","0.0-6.0-0.136","DIGA","2","m","rechts","58","","fixation","","","",""
"1462","img/0_300.png","70","image-keyboard-response","279","330322","0.0-6.0-1.136","DIGA","2","m","rechts","58","","","self","f","0","true"
"null","<div style=""font-size:60px;"">+</div>","null","html-keyboard-response","280","330726","0.0-6.0-0.137","DIGA","2","m","rechts","58","","fixation","","","",""
"1206","img/0_240.png","70","image-keyboard-response","281","331933","0.0-6.0-1.137","DIGA","2","m","rechts","58","","","self","f","0","true"
"null","<div style=""font-size:60px;"">+</div>","null","html-keyboard-response","282","332238","0.0-6.0-0.138","DIGA","2","m","rechts","58","","fixation","","","",""
"1149","img/90_60.png","74","image-keyboard-response","283","333389","0.0-6.0-1.138","DIGA","2","m","rechts","58","","","self","j","90","true"
"null","<div style=""font-size:60px;"">+</div>","null","html-keyboard-response","284","333744","0.0-6.0-0.139","DIGA","2","m","rechts","58","","fixation","","","",""
"1411","img/90_330.png","70","image-keyboard-response","285","335156","0.0-6.0-1.139","DIGA","2","m","rechts","58","","","self","f","90","true"
"null","<div style=""font-size:60px;"">+</div>","null","html-keyboard-response","286","335509","0.0-6.0-0.140","DIGA","2","m","rechts","58","","fixation","","","",""
"1497","img/120_90.png","70","image-keyboard-response","287","337007","0.0-6.0-1.140","DIGA","2","m","rechts","58","","","self","f","120","true"
"null","<div style=""font-size:60px;"">+</div>","null","html-keyboard-response","288","337308","0.0-6.0-0.141","DIGA","2","m","rechts","58","","fixation","","","",""
"1678","img/150_60.png","70","image-keyboard-response","289","338987","0.0-6.0-1.141","DIGA","2","m","rechts","58","","","self","f","150","true"
"null","<div style=""font-size:60px;"">+</div>","null","html-keyboard-response","290","339292","0.0-6.0-0.142","DIGA","2","m","rechts","58","","fixation","","","",""
"1219","img/90_180.png","74","image-keyboard-response","291","340511","0.0-6.0-1.142","DIGA","2","m","rechts","58","","","self","j","90","true"
"null","<div style=""font-size:60px;"">+</div>","null","html-keyboard-response","292","340864","0.0-6.0-0.143","DIGA","2","m","rechts","58","","fixation","","","",""
"1689","img/0_330.png","70","image-keyboard-response","293","342554","0.0-6.0-1.143","DIGA","2","m","rechts","58","","","self","f","0","true"
"null","<div style=""font-size:60px;"">+</div>","null","html-keyboard-response","294","343060","0.0-6.0-0.144","DIGA","2","m","rechts","58","","fixation","","","",""
"1181","img/120_210.png","74","image-keyboard-response","295","344242","0.0-6.0-1.144","DIGA","2","m","rechts","58","","","self","j","120","true"
"null","<div style=""font-size:60px;"">+</div>","null","html-keyboard-response","296","344548","0.0-6.0-0.145","DIGA","2","m","rechts","58","","fixation","","","",""
"1435","img/L120_180.png","70","image-keyboard-response","297","345983","0.0-6.0-1.145","DIGA","2","m","rechts","58","","","self","f","120","true"
"null","<div style=""font-size:60px;"">+</div>","null","html-keyboard-response","298","346485","0.0-6.0-0.146","DIGA","2","m","rechts","58","","fixation","","","",""
"1185","img/0_60.png","74","image-keyboard-response","299","347670","0.0-6.0-1.146","DIGA","2","m","rechts","58","","","self","j","0","true"
"null","<div style=""font-size:60px;"">+</div>","null","html-keyboard-response","300","348023","0.0-6.0-0.147","DIGA","2","m","rechts","58","","fixation","","","",""
"1581","img/0_150.png","74","image-keyboard-response","301","349605","0.0-6.0-1.147","DIGA","2","m","rechts","58","","","self","j","0","true"
"null","<div style=""font-size:60px;"">+</div>","null","html-keyboard-response","302","350111","0.0-6.0-0.148","DIGA","2","m","rechts","58","","fixation","","","",""
"1214","img/90_150.png","70","image-keyboard-response","303","351325","0.0-6.0-1.148","DIGA","2","m","rechts","58","","","self","f","90","true"
"null","<div style=""font-size:60px;"">+</div>","null","html-keyboard-response","304","351830","0.0-6.0-0.149","DIGA","2","m","rechts","58","","fixation","","","",""
"1463","img/150_90.png","70","image-keyboard-response","305","353294","0.0-6.0-1.149","DIGA","2","m","rechts","58","","","self","f","150","true"
"null","<div style=""font-size:60px;"">+</div>","null","html-keyboard-response","306","353798","0.0-6.0-0.150","DIGA","2","m","rechts","58","","fixation","","","",""
"1661","img/30_240.png","74","image-keyboard-response","307","355460","0.0-6.0-1.150","DIGA","2","m","rechts","58","","","self","f","30","false"
"null","<div style=""font-size:60px;"">+</div>","null","html-keyboard-response","308","355964","0.0-6.0-0.151","DIGA","2","m","rechts","58","","fixation","","","",""
"1231","img/60_90.png","74","image-keyboard-response","309","357195","0.0-6.0-1.151","DIGA","2","m","rechts","58","","","self","j","60","true"
"null","<div style=""font-size:60px;"">+</div>","null","html-keyboard-response","310","357600","0.0-6.0-0.152","DIGA","2","m","rechts","58","","fixation","","","",""
"1310","img/0_90.png","74","image-keyboard-response","311","358911","0.0-6.0-1.152","DIGA","2","m","rechts","58","","","self","j","0","true"
"null","<div style=""font-size:60px;"">+</div>","null","html-keyboard-response","312","359312","0.0-6.0-0.153","DIGA","2","m","rechts","58","","fixation","","","",""
"1443","img/60_210.png","74","image-keyboard-response","313","360756","0.0-6.0-1.153","DIGA","2","m","rechts","58","","","self","j","60","true"
"null","<div style=""font-size:60px;"">+</div>","null","html-keyboard-response","314","361211","0.0-6.0-0.154","DIGA","2","m","rechts","58","","fixation","","","",""
"1211","img/0_30.png","74","image-keyboard-response","315","362424","0.0-6.0-1.154","DIGA","2","m","rechts","58","","","self","j","0","true"
"null","<div style=""font-size:60px;"">+</div>","null","html-keyboard-response","316","362777","0.0-6.0-0.155","DIGA","2","m","rechts","58","","fixation","","","",""
"1139","img/120_270.png","74","image-keyboard-response","317","363916","0.0-6.0-1.155","DIGA","2","m","rechts","58","","","self","j","120","true"
"null","<div style=""font-size:60px;"">+</div>","null","html-keyboard-response","318","364321","0.0-6.0-0.156","DIGA","2","m","rechts","58","","fixation","","","",""
"1475","img/60_30.png","70","image-keyboard-response","319","365798","0.0-6.0-1.156","DIGA","2","m","rechts","58","","","self","j","60","false"
"null","<div style=""font-size:60px;"">+</div>","null","html-keyboard-response","320","366303","0.0-6.0-0.157","DIGA","2","m","rechts","58","","fixation","","","",""
"1518","img/150_300.png","74","image-keyboard-response","321","367822","0.0-6.0-1.157","DIGA","2","m","rechts","58","","","self","j","150","true"
"null","<div style=""font-size:60px;"">+</div>","null","html-keyboard-response","322","368122","0.0-6.0-0.158","DIGA","2","m","rechts","58","","fixation","","","",""
"1362","img/30_270.png","74","image-keyboard-response","323","369485","0.0-6.0-1.158","DIGA","2","m","rechts","58","","","self","f","30","false"
"null","<div style=""font-size:60px;"">+</div>","null","html-keyboard-response","324","369986","0.0-6.0-0.159","DIGA","2","m","rechts","58","","fixation","","","",""
"1246","img/60_210.png","74","image-keyboard-response","325","371233","0.0-6.0-1.159","DIGA","2","m","rechts","58","","","self","j","60","true"
"null","<div style=""font-size:60px;"">+</div>","null","html-keyboard-response","326","371639","0.0-6.0-0.160","DIGA","2","m","rechts","58","","fixation","","","",""
"1156","img/120_180.png","74","image-keyboard-response","327","372796","0.0-6.0-1.160","DIGA","2","m","rechts","58","","","self","j","120","true"
"null","<div style=""font-size:60px;"">+</div>","null","html-keyboard-response","328","373201","0.0-6.0-0.161","DIGA","2","m","rechts","58","","fixation","","","",""
"1394","img/150_270.png","74","image-keyboard-response","329","374597","0.0-6.0-1.161","DIGA","2","m","rechts","58","","","self","j","150","true"
"null","<div style=""font-size:60px;"">+</div>","null","html-keyboard-response","330","374903","0.0-6.0-0.162","DIGA","2","m","rechts","58","","fixation","","","",""
"2232","img/90_330.png","70","image-keyboard-response","331","377136","0.0-6.0-1.162","DIGA","2","m","rechts","58","","","self","f","90","true"
"null","<div style=""font-size:60px;"">+</div>","null","html-keyboard-response","332","377542","0.0-6.0-0.163","DIGA","2","m","rechts","58","","fixation","","","",""
"1082","img/90_210.png","74","image-keyboard-response","333","378625","0.0-6.0-1.163","DIGA","2","m","rechts","58","","","self","j","90","true"
"null","<div style=""font-size:60px;"">+</div>","null","html-keyboard-response","334","378931","0.0-6.0-0.164","DIGA","2","m","rechts","58","","fixation","","","",""
"1336","img/120_90.png","70","image-keyboard-response","335","380268","0.0-6.0-1.164","DIGA","2","m","rechts","58","","","self","f","120","true"
"null","<div style=""font-size:60px;"">+</div>","null","html-keyboard-response","336","380672","0.0-6.0-0.165","DIGA","2","m","rechts","58","","fixation","","","",""
"1423","img/60_150.png","70","image-keyboard-response","337","382096","0.0-6.0-1.165","DIGA","2","m","rechts","58","","","self","f","60","true"
"null","<div style=""font-size:60px;"">+</div>","null","html-keyboard-response","338","382448","0.0-6.0-0.166","DIGA","2","m","rechts","58","","fixation","","","",""
"1568","img/0_30.png","74","image-keyboard-response","339","384017","0.0-6.0-1.166","DIGA","2","m","rechts","58","","","self","j","0","true"
"null","<div style=""font-size:60px;"">+</div>","null","html-keyboard-response","340","384474","0.0-6.0-0.167","DIGA","2","m","rechts","58","","fixation","","","",""
"940","img/L60_180.png","70","image-keyboard-response","341","385415","0.0-6.0-1.167","DIGA","2","m","rechts","58","","","self","f","60","true"
"null","<div style=""font-size:60px;"">+</div>","null","html-keyboard-response","342","385919","0.0-6.0-0.168","DIGA","2","m","rechts","58","","fixation","","","",""
"1234","img/0_240.png","70","image-keyboard-response","343","387154","0.0-6.0-1.168","DIGA","2","m","rechts","58","","","self","f","0","true"
"null","<div style=""font-size:60px;"">+</div>","null","html-keyboard-response","344","387611","0.0-6.0-0.169","DIGA","2","m","rechts","58","","fixation","","","",""
"1110","img/90_150.png","70","image-keyboard-response","345","388721","0.0-6.0-1.169","DIGA","2","m","rechts","58","","","self","f","90","true"
"null","<div style=""font-size:60px;"">+</div>","null","html-keyboard-response","346","389222","0.0-6.0-0.170","DIGA","2","m","rechts","58","","fixation","","","",""
"1474","img/30_60.png","74","image-keyboard-response","347","390697","0.0-6.0-1.170","DIGA","2","m","rechts","58","","","self","j","30","true"
"null","<div style=""font-size:60px;"">+</div>","null","html-keyboard-response","348","391102","0.0-6.0-0.171","DIGA","2","m","rechts","58","","fixation","","","",""
"984","img/60_90.png","74","image-keyboard-response","349","392086","0.0-6.0-1.171","DIGA","2","m","rechts","58","","","self","j","60","true"
"null","<div style=""font-size:60px;"">+</div>","null","html-keyboard-response","350","392541","0.0-6.0-0.172","DIGA","2","m","rechts","58","","fixation","","","",""
"1071","img/0_270.png","70","image-keyboard-response","351","393613","0.0-6.0-1.172","DIGA","2","m","rechts","58","","","self","f","0","true"
"null","<div style=""font-size:60px;"">+</div>","null","html-keyboard-response","352","393964","0.0-6.0-0.173","DIGA","2","m","rechts","58","","fixation","","","",""
"1001","img/L150_180.png","74","image-keyboard-response","353","394966","0.0-6.0-1.173","DIGA","2","m","rechts","58","","","self","f","150","false"
"null","<div style=""font-size:60px;"">+</div>","null","html-keyboard-response","354","395370","0.0-6.0-0.174","DIGA","2","m","rechts","58","","fixation","","","",""
"1255","img/0_330.png","70","image-keyboard-response","355","396627","0.0-6.0-1.174","DIGA","2","m","rechts","58","","","self","f","0","true"
"null","<div style=""font-size:60px;"">+</div>","null","html-keyboard-response","356","396929","0.0-6.0-0.175","DIGA","2","m","rechts","58","","fixation","","","",""
"1122","img/90_120.png","70","image-keyboard-response","357","398051","0.0-6.0-1.175","DIGA","2","m","rechts","58","","","self","f","90","true"
"null","<div style=""font-size:60px;"">+</div>","null","html-keyboard-response","358","398503","0.0-6.0-0.176","DIGA","2","m","rechts","58","","fixation","","","",""
"1192","img/L30_180.png","70","image-keyboard-response","359","399695","0.0-6.0-1.176","DIGA","2","m","rechts","58","","","self","f","30","true"
"null","<div style=""font-size:60px;"">+</div>","null","html-keyboard-response","360","400000","0.0-6.0-0.177","DIGA","2","m","rechts","58","","fixation","","","",""
"1562","img/60_330.png","70","image-keyboard-response","361","401562","0.0-6.0-1.177","DIGA","2","m","rechts","58","","","self","f","60","true"
"null","<div style=""font-size:60px;"">+</div>","null","html-keyboard-response","362","402066","0.0-6.0-0.178","DIGA","2","m","rechts","58","","fixation","","","",""
"1745","img/150_240.png","74","image-keyboard-response","363","403811","0.0-6.0-1.178","DIGA","2","m","rechts","58","","","self","j","150","true"
"null","<div style=""font-size:60px;"">+</div>","null","html-keyboard-response","364","404114","0.0-6.0-0.179","DIGA","2","m","rechts","58","","fixation","","","",""
"1811","img/90_60.png","74","image-keyboard-response","365","405926","0.0-6.0-1.179","DIGA","2","m","rechts","58","","","self","j","90","true"
"null","<div style=""font-size:60px;"">+</div>","null","html-keyboard-response","366","406383","0.0-6.0-0.180","DIGA","2","m","rechts","58","","fixation","","","",""
"1561","img/120_330.png","70","image-keyboard-response","367","407945","0.0-6.0-1.180","DIGA","2","m","rechts","58","","","self","f","120","true"
"null","<div style=""font-size:60px;"">+</div>","null","html-keyboard-response","368","408248","0.0-6.0-0.181","DIGA","2","m","rechts","58","","fixation","","","",""
"1644","img/L120_180.png","70","image-keyboard-response","369","409892","0.0-6.0-1.181","DIGA","2","m","rechts","58","","","self","f","120","true"
"null","<div style=""font-size:60px;"">+</div>","null","html-keyboard-response","370","410348","0.0-6.0-0.182","DIGA","2","m","rechts","58","","fixation","","","",""
"1188","img/120_30.png","74","image-keyboard-response","371","411536","0.0-6.0-1.182","DIGA","2","m","rechts","58","","","self","j","120","true"
"null","<div style=""font-size:60px;"">+</div>","null","html-keyboard-response","372","411841","0.0-6.0-0.183","DIGA","2","m","rechts","58","","fixation","","","",""
"1157","img/120_150.png","70","image-keyboard-response","373","412998","0.0-6.0-1.183","DIGA","2","m","rechts","58","","","self","f","120","true"
"null","<div style=""font-size:60px;"">+</div>","null","html-keyboard-response","374","413449","0.0-6.0-0.184","DIGA","2","m","rechts","58","","fixation","","","",""
"1444","img/30_120.png","74","image-keyboard-response","375","414893","0.0-6.0-1.184","DIGA","2","m","rechts","58","","","self","j","30","true"
"null","<div style=""font-size:60px;"">+</div>","null","html-keyboard-response","376","415347","0.0-6.0-0.185","DIGA","2","m","rechts","58","","fixation","","","",""
"1652","img/150_60.png","70","image-keyboard-response","377","417000","0.0-6.0-1.185","DIGA","2","m","rechts","58","","","self","f","150","true"
"null","<div style=""font-size:60px;"">+</div>","null","html-keyboard-response","378","417302","0.0-6.0-0.186","DIGA","2","m","rechts","58","","fixation","","","",""
"1367","img/0_300.png","70","image-keyboard-response","379","418670","0.0-6.0-1.186","DIGA","2","m","rechts","58","","","self","f","0","true"
"null","<div style=""font-size:60px;"">+</div>","null","html-keyboard-response","380","419073","0.0-6.0-0.187","DIGA","2","m","rechts","58","","fixation","","","",""
"1304","img/30_180.png","74","image-keyboard-response","381","420377","0.0-6.0-1.187","DIGA","2","m","rechts","58","","","self","j","30","true"
"null","<div style=""font-size:60px;"">+</div>","null","html-keyboard-response","382","420778","0.0-6.0-0.188","DIGA","2","m","rechts","58","","fixation","","","",""
"1781","img/0_150.png","74","image-keyboard-response","383","422561","0.0-6.0-1.188","DIGA","2","m","rechts","58","","","self","j","0","true"
"null","<div style=""font-size:60px;"">+</div>","null","html-keyboard-response","384","422915","0.0-6.0-0.189","DIGA","2","m","rechts","58","","fixation","","","",""
"1481","img/30_300.png","70","image-keyboard-response","385","424396","0.0-6.0-1.189","DIGA","2","m","rechts","58","","","self","f","30","true"
"null","<div style=""font-size:60px;"">+</div>","null","html-keyboard-response","386","424802","0.0-6.0-0.190","DIGA","2","m","rechts","58","","fixation","","","",""
"1560","img/0_210.png","70","image-keyboard-response","387","426362","0.0-6.0-1.190","DIGA","2","m","rechts","58","","","self","f","0","true"
"null","<div style=""font-size:60px;"">+</div>","null","html-keyboard-response","388","426718","0.0-6.0-0.191","DIGA","2","m","rechts","58","","fixation","","","",""
"1550","img/90_300.png","70","image-keyboard-response","389","428268","0.0-6.0-1.191","DIGA","2","m","rechts","58","","","self","f","90","true"
"null","<div style=""font-size:60px;"">+</div>","null","html-keyboard-response","390","428723","0.0-6.0-0.192","DIGA","2","m","rechts","58","","fixation","","","",""
"1291","img/0_120.png","74","image-keyboard-response","391","430015","0.0-6.0-1.192","DIGA","2","m","rechts","58","","","self","j","0","true"
"null","<div style=""font-size:60px;"">+</div>","null","html-keyboard-response","392","430367","0.0-6.0-0.193","DIGA","2","m","rechts","58","","fixation","","","",""
"1162","img/0_90.png","74","image-keyboard-response","393","431530","0.0-6.0-1.193","DIGA","2","m","rechts","58","","","self","j","0","true"
"null","<div style=""font-size:60px;"">+</div>","null","html-keyboard-response","394","431835","0.0-6.0-0.194","DIGA","2","m","rechts","58","","fixation","","","",""
"1795","img/30_90.png","74","image-keyboard-response","395","433631","0.0-6.0-1.194","DIGA","2","m","rechts","58","","","self","j","30","true"
"null","<div style=""font-size:60px;"">+</div>","null","html-keyboard-response","396","433934","0.0-6.0-0.195","DIGA","2","m","rechts","58","","fixation","","","",""
"1734","img/30_240.png","70","image-keyboard-response","397","435669","0.0-6.0-1.195","DIGA","2","m","rechts","58","","","self","f","30","true"
"null","<div style=""font-size:60px;"">+</div>","null","html-keyboard-response","398","436072","0.0-6.0-0.196","DIGA","2","m","rechts","58","","fixation","","","",""
"1691","img/150_180.png","74","image-keyboard-response","399","437764","0.0-6.0-1.196","DIGA","2","m","rechts","58","","","self","j","150","true"
"null","<div style=""font-size:60px;"">+</div>","null","html-keyboard-response","400","438267","0.0-6.0-0.197","DIGA","2","m","rechts","58","","fixation","","","",""
"1889","img/90_30.png","74","image-keyboard-response","401","440158","0.0-6.0-1.197","DIGA","2","m","rechts","58","","","self","j","90","true"
"null","<div style=""font-size:60px;"">+</div>","null","html-keyboard-response","402","440659","0.0-6.0-0.198","DIGA","2","m","rechts","58","","fixation","","","",""
"1333","img/120_210.png","74","image-keyboard-response","403","441992","0.0-6.0-1.198","DIGA","2","m","rechts","58","","","self","j","120","true"
"null","<div style=""font-size:60px;"">+</div>","null","html-keyboard-response","404","442446","0.0-6.0-0.199","DIGA","2","m","rechts","58","","fixation","","","",""
"1397","img/L90_180.png","70","image-keyboard-response","405","443844","0.0-6.0-1.199","DIGA","2","m","rechts","58","","","self","f","90","true"
"null","<div style=""font-size:60px;"">+</div>","null","html-keyboard-response","406","444351","0.0-6.0-0.200","DIGA","2","m","rechts","58","","fixation","","","",""
"1412","img/150_120.png","70","image-keyboard-response","407","445763","0.0-6.0-1.200","DIGA","2","m","rechts","58","","","self","f","150","true"
"null","<div style=""font-size:60px;"">+</div>","null","html-keyboard-response","408","446068","0.0-6.0-0.201","DIGA","2","m","rechts","58","","fixation","","","",""
"1184","img/90_240.png","74","image-keyboard-response","409","447253","0.0-6.0-1.201","DIGA","2","m","rechts","58","","","self","j","90","true"
"null","<div style=""font-size:60px;"">+</div>","null","html-keyboard-response","410","447705","0.0-6.0-0.202","DIGA","2","m","rechts","58","","fixation","","","",""
"1658","img/0_60.png","74","image-keyboard-response","411","449364","0.0-6.0-1.202","DIGA","2","m","rechts","58","","","self","j","0","true"
"null","<div style=""font-size:60px;"">+</div>","null","html-keyboard-response","412","449666","0.0-6.0-0.203","DIGA","2","m","rechts","58","","fixation","","","",""
"1518","img/60_180.png","74","image-keyboard-response","413","451186","0.0-6.0-1.203","DIGA","2","m","rechts","58","","","self","j","60","true"
"null","<div style=""font-size:60px;"">+</div>","null","html-keyboard-response","414","451489","0.0-6.0-0.204","DIGA","2","m","rechts","58","","fixation","","","",""
"1525","img/120_270.png","74","image-keyboard-response","415","453015","0.0-6.0-1.204","DIGA","2","m","rechts","58","","","self","j","120","true"
"null","<div style=""font-size:60px;"">+</div>","null","html-keyboard-response","416","453317","0.0-6.0-0.205","DIGA","2","m","rechts","58","","fixation","","","",""
"1482","img/150_90.png","70","image-keyboard-response","417","454799","0.0-6.0-1.205","DIGA","2","m","rechts","58","","","self","f","150","true"
"null","<div style=""font-size:60px;"">+</div>","null","html-keyboard-response","418","455253","0.0-6.0-0.206","DIGA","2","m","rechts","58","","fixation","","","",""
"1555","img/60_270.png","70","image-keyboard-response","419","456808","0.0-6.0-1.206","DIGA","2","m","rechts","58","","","self","f","60","true"
"null","<div style=""font-size:60px;"">+</div>","null","html-keyboard-response","420","457311","0.0-6.0-0.207","DIGA","2","m","rechts","58","","fixation","","","",""
"1474","img/90_180.png","74","image-keyboard-response","421","458786","0.0-6.0-1.207","DIGA","2","m","rechts","58","","","self","j","90","true"
"16908","<p>Du hast in 88% der Versuche korrekt entschieden.</p><p>Deine durchschnittliche Reaktionszeit war  1456ms.</p><p>Dr&uuml;cke eine beliebige Taste, um die Session zu beenden. Vielen Dank!</p>","72","html-keyboard-response","422","475696","0.0-7.0","DIGA","2","m","rechts","58","","","","","",""
