"rt","stimulus","key_press","trial_type","trial_index","time_elapsed","internal_node_id","subject","session","sex","handedness","age","responses","test_part","condition","correct_response","angle","correct"
"4774","<p>Mental Rotation Experiment.</p> <p>Dr&uuml;cke eine beliebige Taste, um anzufangen.</p>","70","html-keyboard-response","0","4777","0.0-0.0","DIGA","3","m","rechts","58","","","","","",""
"3454","","","survey-text","1","8233","0.0-1.0","DIGA","3","m","rechts","58","{""Q0"":""DIGA""}","","","","",""
"3705","","","survey-text","2","11939","0.0-2.0","DIGA","3","m","rechts","58","{""Q0"":""3""}","","","","",""
"4642","","","survey-multi-choice","3","16584","0.0-3.0","DIGA","3","m","rechts","58","{""Q0"":""m"",""Q1"":""rechts""}","","","","",""
"4052","","","survey-text","4","20636","0.0-4.0","DIGA","3","m","rechts","58","{""Q0"":""58""}","","","","",""
"40522","<p> Stell dir vor, dass du vor einem runden Tisch stehst, auf dem sich ein blauer Ball am Tischrand befindet. Entlang des Tischrands ist jeweils ein verschieden langer Pfeil. Nun bewegst du dich entlang dieses Pfeils bis an seine Spitze. Wenn du am Ende des Pfeils angekommen bist, schau zur Tischmitte. </p> <img src='img/90_180.png'></img> <br> <p>Entscheide dann, ob der Ball von deiner neuen (vorgestellten) Position links oder rechts von dir liegt.</p> <p>Dr&uuml;cke die <strong>'f'</strong>-Taste f&uuml;r links, die <strong>'j'</strong>-Taste f&uuml;r rechts.</p> <br><p> Das Bild wird jeweils 1 Sekunde lang pr&auml;sentiert. Du hast 3 Sekunden Zeit eine Entscheidung zu treffen.</p>","74","html-keyboard-response","5","61159","0.0-5.0","DIGA","3","m","rechts","58","","","","","",""
"null","<div style=""font-size:60px;"">+</div>","null","html-keyboard-response","6","62469","0.0-6.0-0.0","DIGA","3","m","rechts","58","","fixation","","","",""
"1952","img/30_60.png","74","image-keyboard-response","7","64422","0.0-6.0-1.0","DIGA","3","m","rechts","58","","","self","j","30","true"
"null","<div style=""font-size:60px;"">+</div>","null","html-keyboard-response","8","64794","0.0-6.0-0.1","DIGA","3","m","rechts","58","","fixation","","","",""
"1460","img/L60_180.png","70","image-keyboard-response","9","66254","0.0-6.0-1.1","DIGA","3","m","rechts","58","","","self","f","60","true"
"null","<div style=""font-size:60px;"">+</div>","null","html-keyboard-response","10","66759","0.0-6.0-0.2","DIGA","3","m","rechts","58","","fixation","","","",""
"1230","img/0_30.png","74","image-keyboard-response","11","67990","0.0-6.0-1.2","DIGA","3","m","rechts","58","","","self","j","0","true"
"null","<div style=""font-size:60px;"">+</div>","null","html-keyboard-response","12","68443","0.0-6.0-0.3","DIGA","3","m","rechts","58","","fixation","","","",""
"1615","img/120_30.png","74","image-keyboard-response","13","70059","0.0-6.0-1.3","DIGA","3","m","rechts","58","","","self","j","120","true"
"null","<div style=""font-size:60px;"">+</div>","null","html-keyboard-response","14","70415","0.0-6.0-0.4","DIGA","3","m","rechts","58","","fixation","","","",""
"1378","img/0_240.png","70","image-keyboard-response","15","71794","0.0-6.0-1.4","DIGA","3","m","rechts","58","","","self","f","0","true"
"null","<div style=""font-size:60px;"">+</div>","null","html-keyboard-response","16","72300","0.0-6.0-0.5","DIGA","3","m","rechts","58","","fixation","","","",""
"1022","img/0_60.png","74","image-keyboard-response","17","73323","0.0-6.0-1.5","DIGA","3","m","rechts","58","","","self","j","0","true"
"null","<div style=""font-size:60px;"">+</div>","null","html-keyboard-response","18","73777","0.0-6.0-0.6","DIGA","3","m","rechts","58","","fixation","","","",""
"1179","img/150_90.png","70","image-keyboard-response","19","74958","0.0-6.0-1.6","DIGA","3","m","rechts","58","","","self","f","150","true"
"null","<div style=""font-size:60px;"">+</div>","null","html-keyboard-response","20","75363","0.0-6.0-0.7","DIGA","3","m","rechts","58","","fixation","","","",""
"1183","img/120_270.png","74","image-keyboard-response","21","76546","0.0-6.0-1.7","DIGA","3","m","rechts","58","","","self","j","120","true"
"null","<div style=""font-size:60px;"">+</div>","null","html-keyboard-response","22","76851","0.0-6.0-0.8","DIGA","3","m","rechts","58","","fixation","","","",""
"1495","img/30_270.png","70","image-keyboard-response","23","78346","0.0-6.0-1.8","DIGA","3","m","rechts","58","","","self","f","30","true"
"null","<div style=""font-size:60px;"">+</div>","null","html-keyboard-response","24","78650","0.0-6.0-0.9","DIGA","3","m","rechts","58","","fixation","","","",""
"1406","img/150_60.png","70","image-keyboard-response","25","80057","0.0-6.0-1.9","DIGA","3","m","rechts","58","","","self","f","150","true"
"null","<div style=""font-size:60px;"">+</div>","null","html-keyboard-response","26","80510","0.0-6.0-0.10","DIGA","3","m","rechts","58","","fixation","","","",""
"1154","img/150_270.png","74","image-keyboard-response","27","81665","0.0-6.0-1.10","DIGA","3","m","rechts","58","","","self","j","150","true"
"null","<div style=""font-size:60px;"">+</div>","null","html-keyboard-response","28","82066","0.0-6.0-0.11","DIGA","3","m","rechts","58","","fixation","","","",""
"1224","img/0_120.png","74","image-keyboard-response","29","83291","0.0-6.0-1.11","DIGA","3","m","rechts","58","","","self","j","0","true"
"null","<div style=""font-size:60px;"">+</div>","null","html-keyboard-response","30","83795","0.0-6.0-0.12","DIGA","3","m","rechts","58","","fixation","","","",""
"1176","img/0_270.png","70","image-keyboard-response","31","84973","0.0-6.0-1.12","DIGA","3","m","rechts","58","","","self","f","0","true"
"null","<div style=""font-size:60px;"">+</div>","null","html-keyboard-response","32","85327","0.0-6.0-0.13","DIGA","3","m","rechts","58","","fixation","","","",""
"1272","img/90_210.png","74","image-keyboard-response","33","86599","0.0-6.0-1.13","DIGA","3","m","rechts","58","","","self","j","90","true"
"null","<div style=""font-size:60px;"">+</div>","null","html-keyboard-response","34","87005","0.0-6.0-0.14","DIGA","3","m","rechts","58","","fixation","","","",""
"1501","img/150_300.png","74","image-keyboard-response","35","88507","0.0-6.0-1.14","DIGA","3","m","rechts","58","","","self","j","150","true"
"null","<div style=""font-size:60px;"">+</div>","null","html-keyboard-response","36","88863","0.0-6.0-0.15","DIGA","3","m","rechts","58","","fixation","","","",""
"1280","img/60_150.png","70","image-keyboard-response","37","90143","0.0-6.0-1.15","DIGA","3","m","rechts","58","","","self","f","60","true"
"null","<div style=""font-size:60px;"">+</div>","null","html-keyboard-response","38","90446","0.0-6.0-0.16","DIGA","3","m","rechts","58","","fixation","","","",""
"1193","img/90_150.png","70","image-keyboard-response","39","91640","0.0-6.0-1.16","DIGA","3","m","rechts","58","","","self","f","90","true"
"null","<div style=""font-size:60px;"">+</div>","null","html-keyboard-response","40","91942","0.0-6.0-0.17","DIGA","3","m","rechts","58","","fixation","","","",""
"1332","img/0_90.png","74","image-keyboard-response","41","93274","0.0-6.0-1.17","DIGA","3","m","rechts","58","","","self","j","0","true"
"null","<div style=""font-size:60px;"">+</div>","null","html-keyboard-response","42","93778","0.0-6.0-0.18","DIGA","3","m","rechts","58","","fixation","","","",""
"1199","img/90_180.png","74","image-keyboard-response","43","94977","0.0-6.0-1.18","DIGA","3","m","rechts","58","","","self","j","90","true"
"null","<div style=""font-size:60px;"">+</div>","null","html-keyboard-response","44","95331","0.0-6.0-0.19","DIGA","3","m","rechts","58","","fixation","","","",""
"1181","img/120_150.png","70","image-keyboard-response","45","96514","0.0-6.0-1.19","DIGA","3","m","rechts","58","","","self","f","120","true"
"null","<div style=""font-size:60px;"">+</div>","null","html-keyboard-response","46","96867","0.0-6.0-0.20","DIGA","3","m","rechts","58","","fixation","","","",""
"1339","img/90_300.png","70","image-keyboard-response","47","98206","0.0-6.0-1.20","DIGA","3","m","rechts","58","","","self","f","90","true"
"null","<div style=""font-size:60px;"">+</div>","null","html-keyboard-response","48","98709","0.0-6.0-0.21","DIGA","3","m","rechts","58","","fixation","","","",""
"1228","img/90_60.png","70","image-keyboard-response","49","99938","0.0-6.0-1.21","DIGA","3","m","rechts","58","","","self","j","90","false"
"null","<div style=""font-size:60px;"">+</div>","null","html-keyboard-response","50","100441","0.0-6.0-0.22","DIGA","3","m","rechts","58","","fixation","","","",""
"1236","img/30_180.png","74","image-keyboard-response","51","101678","0.0-6.0-1.22","DIGA","3","m","rechts","58","","","self","j","30","true"
"null","<div style=""font-size:60px;"">+</div>","null","html-keyboard-response","52","101983","0.0-6.0-0.23","DIGA","3","m","rechts","58","","fixation","","","",""
"1223","img/L120_180.png","70","image-keyboard-response","53","103206","0.0-6.0-1.23","DIGA","3","m","rechts","58","","","self","f","120","true"
"null","<div style=""font-size:60px;"">+</div>","null","html-keyboard-response","54","103559","0.0-6.0-0.24","DIGA","3","m","rechts","58","","fixation","","","",""
"1132","img/0_210.png","70","image-keyboard-response","55","104691","0.0-6.0-1.24","DIGA","3","m","rechts","58","","","self","f","0","true"
"null","<div style=""font-size:60px;"">+</div>","null","html-keyboard-response","56","105096","0.0-6.0-0.25","DIGA","3","m","rechts","58","","fixation","","","",""
"1120","img/120_180.png","74","image-keyboard-response","57","106217","0.0-6.0-1.25","DIGA","3","m","rechts","58","","","self","j","120","true"
"null","<div style=""font-size:60px;"">+</div>","null","html-keyboard-response","58","106523","0.0-6.0-0.26","DIGA","3","m","rechts","58","","fixation","","","",""
"1009","img/150_180.png","74","image-keyboard-response","59","107532","0.0-6.0-1.26","DIGA","3","m","rechts","58","","","self","j","150","true"
"null","<div style=""font-size:60px;"">+</div>","null","html-keyboard-response","60","107836","0.0-6.0-0.27","DIGA","3","m","rechts","58","","fixation","","","",""
"1363","img/0_330.png","70","image-keyboard-response","61","109201","0.0-6.0-1.27","DIGA","3","m","rechts","58","","","self","f","0","true"
"null","<div style=""font-size:60px;"">+</div>","null","html-keyboard-response","62","109552","0.0-6.0-0.28","DIGA","3","m","rechts","58","","fixation","","","",""
"1402","img/L90_180.png","70","image-keyboard-response","63","110954","0.0-6.0-1.28","DIGA","3","m","rechts","58","","","self","f","90","true"
"null","<div style=""font-size:60px;"">+</div>","null","html-keyboard-response","64","111358","0.0-6.0-0.29","DIGA","3","m","rechts","58","","fixation","","","",""
"1646","img/30_90.png","74","image-keyboard-response","65","113004","0.0-6.0-1.29","DIGA","3","m","rechts","58","","","self","j","30","true"
"null","<div style=""font-size:60px;"">+</div>","null","html-keyboard-response","66","113506","0.0-6.0-0.30","DIGA","3","m","rechts","58","","fixation","","","",""
"1401","img/30_300.png","70","image-keyboard-response","67","114907","0.0-6.0-1.30","DIGA","3","m","rechts","58","","","self","f","30","true"
"null","<div style=""font-size:60px;"">+</div>","null","html-keyboard-response","68","115311","0.0-6.0-0.31","DIGA","3","m","rechts","58","","fixation","","","",""
"1275","img/60_90.png","74","image-keyboard-response","69","116591","0.0-6.0-1.31","DIGA","3","m","rechts","58","","","self","j","60","true"
"null","<div style=""font-size:60px;"">+</div>","null","html-keyboard-response","70","117044","0.0-6.0-0.32","DIGA","3","m","rechts","58","","fixation","","","",""
"1420","img/60_180.png","74","image-keyboard-response","71","118465","0.0-6.0-1.32","DIGA","3","m","rechts","58","","","self","j","60","true"
"null","<div style=""font-size:60px;"">+</div>","null","html-keyboard-response","72","118871","0.0-6.0-0.33","DIGA","3","m","rechts","58","","fixation","","","",""
"1333","img/60_30.png","74","image-keyboard-response","73","120205","0.0-6.0-1.33","DIGA","3","m","rechts","58","","","self","j","60","true"
"null","<div style=""font-size:60px;"">+</div>","null","html-keyboard-response","74","120559","0.0-6.0-0.34","DIGA","3","m","rechts","58","","fixation","","","",""
"1230","img/150_120.png","70","image-keyboard-response","75","121790","0.0-6.0-1.34","DIGA","3","m","rechts","58","","","self","f","150","true"
"null","<div style=""font-size:60px;"">+</div>","null","html-keyboard-response","76","122246","0.0-6.0-0.35","DIGA","3","m","rechts","58","","fixation","","","",""
"1397","img/L150_180.png","70","image-keyboard-response","77","123645","0.0-6.0-1.35","DIGA","3","m","rechts","58","","","self","f","150","true"
"null","<div style=""font-size:60px;"">+</div>","null","html-keyboard-response","78","124000","0.0-6.0-0.36","DIGA","3","m","rechts","58","","fixation","","","",""
"1422","img/150_240.png","74","image-keyboard-response","79","125422","0.0-6.0-1.36","DIGA","3","m","rechts","58","","","self","j","150","true"
"null","<div style=""font-size:60px;"">+</div>","null","html-keyboard-response","80","125926","0.0-6.0-0.37","DIGA","3","m","rechts","58","","fixation","","","",""
"1274","img/60_330.png","70","image-keyboard-response","81","127200","0.0-6.0-1.37","DIGA","3","m","rechts","58","","","self","f","60","true"
"null","<div style=""font-size:60px;"">+</div>","null","html-keyboard-response","82","127603","0.0-6.0-0.38","DIGA","3","m","rechts","58","","fixation","","","",""
"1163","img/90_120.png","70","image-keyboard-response","83","128767","0.0-6.0-1.38","DIGA","3","m","rechts","58","","","self","f","90","true"
"null","<div style=""font-size:60px;"">+</div>","null","html-keyboard-response","84","129222","0.0-6.0-0.39","DIGA","3","m","rechts","58","","fixation","","","",""
"1200","img/0_300.png","70","image-keyboard-response","85","130424","0.0-6.0-1.39","DIGA","3","m","rechts","58","","","self","f","0","true"
"null","<div style=""font-size:60px;"">+</div>","null","html-keyboard-response","86","130929","0.0-6.0-0.40","DIGA","3","m","rechts","58","","fixation","","","",""
"1141","img/90_240.png","74","image-keyboard-response","87","132070","0.0-6.0-1.40","DIGA","3","m","rechts","58","","","self","j","90","true"
"null","<div style=""font-size:60px;"">+</div>","null","html-keyboard-response","88","132573","0.0-6.0-0.41","DIGA","3","m","rechts","58","","fixation","","","",""
"1310","img/60_210.png","74","image-keyboard-response","89","133885","0.0-6.0-1.41","DIGA","3","m","rechts","58","","","self","j","60","true"
"null","<div style=""font-size:60px;"">+</div>","null","html-keyboard-response","90","134187","0.0-6.0-0.42","DIGA","3","m","rechts","58","","fixation","","","",""
"1595","img/L30_180.png","70","image-keyboard-response","91","135782","0.0-6.0-1.42","DIGA","3","m","rechts","58","","","self","f","30","true"
"null","<div style=""font-size:60px;"">+</div>","null","html-keyboard-response","92","136184","0.0-6.0-0.43","DIGA","3","m","rechts","58","","fixation","","","",""
"1547","img/30_240.png","70","image-keyboard-response","93","137731","0.0-6.0-1.43","DIGA","3","m","rechts","58","","","self","f","30","true"
"null","<div style=""font-size:60px;"">+</div>","null","html-keyboard-response","94","138135","0.0-6.0-0.44","DIGA","3","m","rechts","58","","fixation","","","",""
"1384","img/90_30.png","74","image-keyboard-response","95","139519","0.0-6.0-1.44","DIGA","3","m","rechts","58","","","self","j","90","true"
"null","<div style=""font-size:60px;"">+</div>","null","html-keyboard-response","96","140023","0.0-6.0-0.45","DIGA","3","m","rechts","58","","fixation","","","",""
"1195","img/0_150.png","74","image-keyboard-response","97","141218","0.0-6.0-1.45","DIGA","3","m","rechts","58","","","self","j","0","true"
"null","<div style=""font-size:60px;"">+</div>","null","html-keyboard-response","98","141574","0.0-6.0-0.46","DIGA","3","m","rechts","58","","fixation","","","",""
"1274","img/90_330.png","70","image-keyboard-response","99","142848","0.0-6.0-1.46","DIGA","3","m","rechts","58","","","self","f","90","true"
"null","<div style=""font-size:60px;"">+</div>","null","html-keyboard-response","100","143303","0.0-6.0-0.47","DIGA","3","m","rechts","58","","fixation","","","",""
"1489","img/120_330.png","70","image-keyboard-response","101","144793","0.0-6.0-1.47","DIGA","3","m","rechts","58","","","self","f","120","true"
"null","<div style=""font-size:60px;"">+</div>","null","html-keyboard-response","102","145146","0.0-6.0-0.48","DIGA","3","m","rechts","58","","fixation","","","",""
"1547","img/120_210.png","74","image-keyboard-response","103","146694","0.0-6.0-1.48","DIGA","3","m","rechts","58","","","self","j","120","true"
"null","<div style=""font-size:60px;"">+</div>","null","html-keyboard-response","104","147200","0.0-6.0-0.49","DIGA","3","m","rechts","58","","fixation","","","",""
"1438","img/30_120.png","74","image-keyboard-response","105","148639","0.0-6.0-1.49","DIGA","3","m","rechts","58","","","self","j","30","true"
"null","<div style=""font-size:60px;"">+</div>","null","html-keyboard-response","106","148992","0.0-6.0-0.50","DIGA","3","m","rechts","58","","fixation","","","",""
"1604","img/120_90.png","70","image-keyboard-response","107","150598","0.0-6.0-1.50","DIGA","3","m","rechts","58","","","self","f","120","true"
"null","<div style=""font-size:60px;"">+</div>","null","html-keyboard-response","108","151051","0.0-6.0-0.51","DIGA","3","m","rechts","58","","fixation","","","",""
"1448","img/60_270.png","70","image-keyboard-response","109","152500","0.0-6.0-1.51","DIGA","3","m","rechts","58","","","self","f","60","true"
"null","<div style=""font-size:60px;"">+</div>","null","html-keyboard-response","110","152853","0.0-6.0-0.52","DIGA","3","m","rechts","58","","fixation","","","",""
"1626","img/L120_180.png","70","image-keyboard-response","111","154480","0.0-6.0-1.52","DIGA","3","m","rechts","58","","","self","f","120","true"
"null","<div style=""font-size:60px;"">+</div>","null","html-keyboard-response","112","154784","0.0-6.0-0.53","DIGA","3","m","rechts","58","","fixation","","","",""
"1163","img/60_210.png","74","image-keyboard-response","113","155948","0.0-6.0-1.53","DIGA","3","m","rechts","58","","","self","j","60","true"
"null","<div style=""font-size:60px;"">+</div>","null","html-keyboard-response","114","156300","0.0-6.0-0.54","DIGA","3","m","rechts","58","","fixation","","","",""
"1253","img/0_60.png","74","image-keyboard-response","115","157553","0.0-6.0-1.54","DIGA","3","m","rechts","58","","","self","j","0","true"
"null","<div style=""font-size:60px;"">+</div>","null","html-keyboard-response","116","158007","0.0-6.0-0.55","DIGA","3","m","rechts","58","","fixation","","","",""
"1640","img/60_30.png","74","image-keyboard-response","117","159647","0.0-6.0-1.55","DIGA","3","m","rechts","58","","","self","j","60","true"
"null","<div style=""font-size:60px;"">+</div>","null","html-keyboard-response","118","160051","0.0-6.0-0.56","DIGA","3","m","rechts","58","","fixation","","","",""
"1073","img/0_300.png","70","image-keyboard-response","119","161125","0.0-6.0-1.56","DIGA","3","m","rechts","58","","","self","f","0","true"
"null","<div style=""font-size:60px;"">+</div>","null","html-keyboard-response","120","161531","0.0-6.0-0.57","DIGA","3","m","rechts","58","","fixation","","","",""
"1369","img/150_60.png","70","image-keyboard-response","121","162901","0.0-6.0-1.57","DIGA","3","m","rechts","58","","","self","f","150","true"
"null","<div style=""font-size:60px;"">+</div>","null","html-keyboard-response","122","163254","0.0-6.0-0.58","DIGA","3","m","rechts","58","","fixation","","","",""
"1099","img/120_270.png","74","image-keyboard-response","123","164356","0.0-6.0-1.58","DIGA","3","m","rechts","58","","","self","j","120","true"
"null","<div style=""font-size:60px;"">+</div>","null","html-keyboard-response","124","164762","0.0-6.0-0.59","DIGA","3","m","rechts","58","","fixation","","","",""
"1143","img/90_30.png","70","image-keyboard-response","125","165906","0.0-6.0-1.59","DIGA","3","m","rechts","58","","","self","j","90","false"
"null","<div style=""font-size:60px;"">+</div>","null","html-keyboard-response","126","166210","0.0-6.0-0.60","DIGA","3","m","rechts","58","","fixation","","","",""
"1383","img/60_150.png","70","image-keyboard-response","127","167593","0.0-6.0-1.60","DIGA","3","m","rechts","58","","","self","f","60","true"
"null","<div style=""font-size:60px;"">+</div>","null","html-keyboard-response","128","167997","0.0-6.0-0.61","DIGA","3","m","rechts","58","","fixation","","","",""
"1108","img/120_90.png","70","image-keyboard-response","129","169106","0.0-6.0-1.61","DIGA","3","m","rechts","58","","","self","f","120","true"
"null","<div style=""font-size:60px;"">+</div>","null","html-keyboard-response","130","169412","0.0-6.0-0.62","DIGA","3","m","rechts","58","","fixation","","","",""
"1114","img/0_120.png","74","image-keyboard-response","131","170526","0.0-6.0-1.62","DIGA","3","m","rechts","58","","","self","j","0","true"
"null","<div style=""font-size:60px;"">+</div>","null","html-keyboard-response","132","171032","0.0-6.0-0.63","DIGA","3","m","rechts","58","","fixation","","","",""
"1307","img/90_240.png","74","image-keyboard-response","133","172339","0.0-6.0-1.63","DIGA","3","m","rechts","58","","","self","j","90","true"
"null","<div style=""font-size:60px;"">+</div>","null","html-keyboard-response","134","172692","0.0-6.0-0.64","DIGA","3","m","rechts","58","","fixation","","","",""
"2048","img/90_120.png","70","image-keyboard-response","135","174741","0.0-6.0-1.64","DIGA","3","m","rechts","58","","","self","f","90","true"
"null","<div style=""font-size:60px;"">+</div>","null","html-keyboard-response","136","175046","0.0-6.0-0.65","DIGA","3","m","rechts","58","","fixation","","","",""
"1176","img/120_30.png","74","image-keyboard-response","137","176222","0.0-6.0-1.65","DIGA","3","m","rechts","58","","","self","j","120","true"
"null","<div style=""font-size:60px;"">+</div>","null","html-keyboard-response","138","176726","0.0-6.0-0.66","DIGA","3","m","rechts","58","","fixation","","","",""
"1628","img/150_90.png","70","image-keyboard-response","139","178356","0.0-6.0-1.66","DIGA","3","m","rechts","58","","","self","f","150","true"
"null","<div style=""font-size:60px;"">+</div>","null","html-keyboard-response","140","178709","0.0-6.0-0.67","DIGA","3","m","rechts","58","","fixation","","","",""
"1398","img/120_180.png","74","image-keyboard-response","141","180107","0.0-6.0-1.67","DIGA","3","m","rechts","58","","","self","j","120","true"
"null","<div style=""font-size:60px;"">+</div>","null","html-keyboard-response","142","180610","0.0-6.0-0.68","DIGA","3","m","rechts","58","","fixation","","","",""
"1276","img/L90_180.png","70","image-keyboard-response","143","181886","0.0-6.0-1.68","DIGA","3","m","rechts","58","","","self","f","90","true"
"null","<div style=""font-size:60px;"">+</div>","null","html-keyboard-response","144","182188","0.0-6.0-0.69","DIGA","3","m","rechts","58","","fixation","","","",""
"1471","img/30_180.png","74","image-keyboard-response","145","183659","0.0-6.0-1.69","DIGA","3","m","rechts","58","","","self","j","30","true"
"null","<div style=""font-size:60px;"">+</div>","null","html-keyboard-response","146","184063","0.0-6.0-0.70","DIGA","3","m","rechts","58","","fixation","","","",""
"1255","img/150_300.png","74","image-keyboard-response","147","185318","0.0-6.0-1.70","DIGA","3","m","rechts","58","","","self","j","150","true"
"null","<div style=""font-size:60px;"">+</div>","null","html-keyboard-response","148","185623","0.0-6.0-0.71","DIGA","3","m","rechts","58","","fixation","","","",""
"1414","img/150_120.png","70","image-keyboard-response","149","187037","0.0-6.0-1.71","DIGA","3","m","rechts","58","","","self","f","150","true"
"null","<div style=""font-size:60px;"">+</div>","null","html-keyboard-response","150","187440","0.0-6.0-0.72","DIGA","3","m","rechts","58","","fixation","","","",""
"1405","img/30_120.png","74","image-keyboard-response","151","188846","0.0-6.0-1.72","DIGA","3","m","rechts","58","","","self","j","30","true"
"null","<div style=""font-size:60px;"">+</div>","null","html-keyboard-response","152","189201","0.0-6.0-0.73","DIGA","3","m","rechts","58","","fixation","","","",""
"1439","img/30_270.png","70","image-keyboard-response","153","190641","0.0-6.0-1.73","DIGA","3","m","rechts","58","","","self","f","30","true"
"null","<div style=""font-size:60px;"">+</div>","null","html-keyboard-response","154","191046","0.0-6.0-0.74","DIGA","3","m","rechts","58","","fixation","","","",""
"921","img/0_150.png","74","image-keyboard-response","155","191967","0.0-6.0-1.74","DIGA","3","m","rechts","58","","","self","j","0","true"
"null","<div style=""font-size:60px;"">+</div>","null","html-keyboard-response","156","192421","0.0-6.0-0.75","DIGA","3","m","rechts","58","","fixation","","","",""
"1373","img/120_150.png","70","image-keyboard-response","157","193795","0.0-6.0-1.75","DIGA","3","m","rechts","58","","","self","f","120","true"
"null","<div style=""font-size:60px;"">+</div>","null","html-keyboard-response","158","194200","0.0-6.0-0.76","DIGA","3","m","rechts","58","","fixation","","","",""
"1468","img/30_240.png","70","image-keyboard-response","159","195669","0.0-6.0-1.76","DIGA","3","m","rechts","58","","","self","f","30","true"
"null","<div style=""font-size:60px;"">+</div>","null","html-keyboard-response","160","196175","0.0-6.0-0.77","DIGA","3","m","rechts","58","","fixation","","","",""
"1105","img/90_210.png","74","image-keyboard-response","161","197280","0.0-6.0-1.77","DIGA","3","m","rechts","58","","","self","j","90","true"
"null","<div style=""font-size:60px;"">+</div>","null","html-keyboard-response","162","197585","0.0-6.0-0.78","DIGA","3","m","rechts","58","","fixation","","","",""
"2161","img/90_330.png","74","image-keyboard-response","163","199746","0.0-6.0-1.78","DIGA","3","m","rechts","58","","","self","f","90","false"
"null","<div style=""font-size:60px;"">+</div>","null","html-keyboard-response","164","200047","0.0-6.0-0.79","DIGA","3","m","rechts","58","","fixation","","","",""
"1306","img/0_330.png","70","image-keyboard-response","165","201354","0.0-6.0-1.79","DIGA","3","m","rechts","58","","","self","f","0","true"
"null","<div style=""font-size:60px;"">+</div>","null","html-keyboard-response","166","201859","0.0-6.0-0.80","DIGA","3","m","rechts","58","","fixation","","","",""
"1833","img/60_90.png","74","image-keyboard-response","167","203692","0.0-6.0-1.80","DIGA","3","m","rechts","58","","","self","j","60","true"
"null","<div style=""font-size:60px;"">+</div>","null","html-keyboard-response","168","204146","0.0-6.0-0.81","DIGA","3","m","rechts","58","","fixation","","","",""
"1294","img/30_60.png","74","image-keyboard-response","169","205441","0.0-6.0-1.81","DIGA","3","m","rechts","58","","","self","j","30","true"
"null","<div style=""font-size:60px;"">+</div>","null","html-keyboard-response","170","205896","0.0-6.0-0.82","DIGA","3","m","rechts","58","","fixation","","","",""
"1872","img/120_330.png","70","image-keyboard-response","171","207769","0.0-6.0-1.82","DIGA","3","m","rechts","58","","","self","f","120","true"
"null","<div style=""font-size:60px;"">+</div>","null","html-keyboard-response","172","208271","0.0-6.0-0.83","DIGA","3","m","rechts","58","","fixation","","","",""
"1461","img/150_240.png","74","image-keyboard-response","173","209732","0.0-6.0-1.83","DIGA","3","m","rechts","58","","","self","j","150","true"
"null","<div style=""font-size:60px;"">+</div>","null","html-keyboard-response","174","210187","0.0-6.0-0.84","DIGA","3","m","rechts","58","","fixation","","","",""
"1281","img/90_300.png","70","image-keyboard-response","175","211469","0.0-6.0-1.84","DIGA","3","m","rechts","58","","","self","f","90","true"
"null","<div style=""font-size:60px;"">+</div>","null","html-keyboard-response","176","211923","0.0-6.0-0.85","DIGA","3","m","rechts","58","","fixation","","","",""
"1131","img/0_210.png","70","image-keyboard-response","177","213055","0.0-6.0-1.85","DIGA","3","m","rechts","58","","","self","f","0","true"
"null","<div style=""font-size:60px;"">+</div>","null","html-keyboard-response","178","213409","0.0-6.0-0.86","DIGA","3","m","rechts","58","","fixation","","","",""
"1641","img/30_90.png","74","image-keyboard-response","179","215050","0.0-6.0-1.86","DIGA","3","m","rechts","58","","","self","j","30","true"
"null","<div style=""font-size:60px;"">+</div>","null","html-keyboard-response","180","215504","0.0-6.0-0.87","DIGA","3","m","rechts","58","","fixation","","","",""
"1136","img/0_270.png","70","image-keyboard-response","181","216641","0.0-6.0-1.87","DIGA","3","m","rechts","58","","","self","f","0","true"
"null","<div style=""font-size:60px;"">+</div>","null","html-keyboard-response","182","216996","0.0-6.0-0.88","DIGA","3","m","rechts","58","","fixation","","","",""
"1402","img/60_270.png","70","image-keyboard-response","183","218399","0.0-6.0-1.88","DIGA","3","m","rechts","58","","","self","f","60","true"
"null","<div style=""font-size:60px;"">+</div>","null","html-keyboard-response","184","218703","0.0-6.0-0.89","DIGA","3","m","rechts","58","","fixation","","","",""
"1449","img/L150_180.png","70","image-keyboard-response","185","220153","0.0-6.0-1.89","DIGA","3","m","rechts","58","","","self","f","150","true"
"null","<div style=""font-size:60px;"">+</div>","null","html-keyboard-response","186","220506","0.0-6.0-0.90","DIGA","3","m","rechts","58","","fixation","","","",""
"1088","img/120_210.png","74","image-keyboard-response","187","221596","0.0-6.0-1.90","DIGA","3","m","rechts","58","","","self","j","120","true"
"null","<div style=""font-size:60px;"">+</div>","null","html-keyboard-response","188","222098","0.0-6.0-0.91","DIGA","3","m","rechts","58","","fixation","","","",""
"1466","img/30_300.png","70","image-keyboard-response","189","223565","0.0-6.0-1.91","DIGA","3","m","rechts","58","","","self","f","30","true"
"null","<div style=""font-size:60px;"">+</div>","null","html-keyboard-response","190","223919","0.0-6.0-0.92","DIGA","3","m","rechts","58","","fixation","","","",""
"1001","img/0_240.png","70","image-keyboard-response","191","224921","0.0-6.0-1.92","DIGA","3","m","rechts","58","","","self","f","0","true"
"null","<div style=""font-size:60px;"">+</div>","null","html-keyboard-response","192","225277","0.0-6.0-0.93","DIGA","3","m","rechts","58","","fixation","","","",""
"1043","img/0_30.png","74","image-keyboard-response","193","226321","0.0-6.0-1.93","DIGA","3","m","rechts","58","","","self","j","0","true"
"null","<div style=""font-size:60px;"">+</div>","null","html-keyboard-response","194","226827","0.0-6.0-0.94","DIGA","3","m","rechts","58","","fixation","","","",""
"1426","img/90_180.png","74","image-keyboard-response","195","228253","0.0-6.0-1.94","DIGA","3","m","rechts","58","","","self","j","90","true"
"null","<div style=""font-size:60px;"">+</div>","null","html-keyboard-response","196","228559","0.0-6.0-0.95","DIGA","3","m","rechts","58","","fixation","","","",""
"1286","img/90_150.png","70","image-keyboard-response","197","229845","0.0-6.0-1.95","DIGA","3","m","rechts","58","","","self","f","90","true"
"null","<div style=""font-size:60px;"">+</div>","null","html-keyboard-response","198","230247","0.0-6.0-0.96","DIGA","3","m","rechts","58","","fixation","","","",""
"1257","img/60_330.png","70","image-keyboard-response","199","231504","0.0-6.0-1.96","DIGA","3","m","rechts","58","","","self","f","60","true"
"null","<div style=""font-size:60px;"">+</div>","null","html-keyboard-response","200","231809","0.0-6.0-0.97","DIGA","3","m","rechts","58","","fixation","","","",""
"1509","img/L60_180.png","74","image-keyboard-response","201","233319","0.0-6.0-1.97","DIGA","3","m","rechts","58","","","self","f","60","false"
"null","<div style=""font-size:60px;"">+</div>","null","html-keyboard-response","202","233822","0.0-6.0-0.98","DIGA","3","m","rechts","58","","fixation","","","",""
"1261","img/90_60.png","74","image-keyboard-response","203","235084","0.0-6.0-1.98","DIGA","3","m","rechts","58","","","self","j","90","true"
"null","<div style=""font-size:60px;"">+</div>","null","html-keyboard-response","204","235390","0.0-6.0-0.99","DIGA","3","m","rechts","58","","fixation","","","",""
"1340","img/L30_180.png","70","image-keyboard-response","205","236730","0.0-6.0-1.99","DIGA","3","m","rechts","58","","","self","f","30","true"
"null","<div style=""font-size:60px;"">+</div>","null","html-keyboard-response","206","237135","0.0-6.0-0.100","DIGA","3","m","rechts","58","","fixation","","","",""
"1689","img/150_180.png","74","image-keyboard-response","207","238826","0.0-6.0-1.100","DIGA","3","m","rechts","58","","","self","j","150","true"
"null","<div style=""font-size:60px;"">+</div>","null","html-keyboard-response","208","239180","0.0-6.0-0.101","DIGA","3","m","rechts","58","","fixation","","","",""
"1535","img/150_270.png","74","image-keyboard-response","209","240716","0.0-6.0-1.101","DIGA","3","m","rechts","58","","","self","j","150","true"
"null","<div style=""font-size:60px;"">+</div>","null","html-keyboard-response","210","241118","0.0-6.0-0.102","DIGA","3","m","rechts","58","","fixation","","","",""
"1456","img/60_180.png","74","image-keyboard-response","211","242575","0.0-6.0-1.102","DIGA","3","m","rechts","58","","","self","j","60","true"
"null","<div style=""font-size:60px;"">+</div>","null","html-keyboard-response","212","243027","0.0-6.0-0.103","DIGA","3","m","rechts","58","","fixation","","","",""
"1138","img/0_90.png","74","image-keyboard-response","213","244166","0.0-6.0-1.103","DIGA","3","m","rechts","58","","","self","j","0","true"
"null","<div style=""font-size:60px;"">+</div>","null","html-keyboard-response","214","244572","0.0-6.0-0.104","DIGA","3","m","rechts","58","","fixation","","","",""
"1490","img/120_330.png","70","image-keyboard-response","215","246063","0.0-6.0-1.104","DIGA","3","m","rechts","58","","","self","f","120","true"
"null","<div style=""font-size:60px;"">+</div>","null","html-keyboard-response","216","246516","0.0-6.0-0.105","DIGA","3","m","rechts","58","","fixation","","","",""
"967","img/120_210.png","74","image-keyboard-response","217","247484","0.0-6.0-1.105","DIGA","3","m","rechts","58","","","self","j","120","true"
"null","<div style=""font-size:60px;"">+</div>","null","html-keyboard-response","218","247891","0.0-6.0-0.106","DIGA","3","m","rechts","58","","fixation","","","",""
"1774","img/90_300.png","70","image-keyboard-response","219","249665","0.0-6.0-1.106","DIGA","3","m","rechts","58","","","self","f","90","true"
"null","<div style=""font-size:60px;"">+</div>","null","html-keyboard-response","220","250171","0.0-6.0-0.107","DIGA","3","m","rechts","58","","fixation","","","",""
"1459","img/90_60.png","70","image-keyboard-response","221","251632","0.0-6.0-1.107","DIGA","3","m","rechts","58","","","self","j","90","false"
"null","<div style=""font-size:60px;"">+</div>","null","html-keyboard-response","222","252083","0.0-6.0-0.108","DIGA","3","m","rechts","58","","fixation","","","",""
"1666","img/L30_180.png","70","image-keyboard-response","223","253751","0.0-6.0-1.108","DIGA","3","m","rechts","58","","","self","f","30","true"
"null","<div style=""font-size:60px;"">+</div>","null","html-keyboard-response","224","254056","0.0-6.0-0.109","DIGA","3","m","rechts","58","","fixation","","","",""
"1106","img/0_300.png","70","image-keyboard-response","225","255162","0.0-6.0-1.109","DIGA","3","m","rechts","58","","","self","f","0","true"
"null","<div style=""font-size:60px;"">+</div>","null","html-keyboard-response","226","255466","0.0-6.0-0.110","DIGA","3","m","rechts","58","","fixation","","","",""
"1776","img/90_330.png","74","image-keyboard-response","227","257243","0.0-6.0-1.110","DIGA","3","m","rechts","58","","","self","f","90","false"
"null","<div style=""font-size:60px;"">+</div>","null","html-keyboard-response","228","257748","0.0-6.0-0.111","DIGA","3","m","rechts","58","","fixation","","","",""
"1081","img/90_150.png","70","image-keyboard-response","229","258829","0.0-6.0-1.111","DIGA","3","m","rechts","58","","","self","f","90","true"
"null","<div style=""font-size:60px;"">+</div>","null","html-keyboard-response","230","259284","0.0-6.0-0.112","DIGA","3","m","rechts","58","","fixation","","","",""
"2198","img/90_210.png","74","image-keyboard-response","231","261482","0.0-6.0-1.112","DIGA","3","m","rechts","58","","","self","j","90","true"
"null","<div style=""font-size:60px;"">+</div>","null","html-keyboard-response","232","261887","0.0-6.0-0.113","DIGA","3","m","rechts","58","","fixation","","","",""
"1692","img/0_120.png","74","image-keyboard-response","233","263579","0.0-6.0-1.113","DIGA","3","m","rechts","58","","","self","j","0","true"
"null","<div style=""font-size:60px;"">+</div>","null","html-keyboard-response","234","263882","0.0-6.0-0.114","DIGA","3","m","rechts","58","","fixation","","","",""
"1750","img/60_30.png","74","image-keyboard-response","235","265634","0.0-6.0-1.114","DIGA","3","m","rechts","58","","","self","j","60","true"
"null","<div style=""font-size:60px;"">+</div>","null","html-keyboard-response","236","265937","0.0-6.0-0.115","DIGA","3","m","rechts","58","","fixation","","","",""
"1453","img/0_330.png","70","image-keyboard-response","237","267391","0.0-6.0-1.115","DIGA","3","m","rechts","58","","","self","f","0","true"
"null","<div style=""font-size:60px;"">+</div>","null","html-keyboard-response","238","267845","0.0-6.0-0.116","DIGA","3","m","rechts","58","","fixation","","","",""
"1412","img/30_90.png","74","image-keyboard-response","239","269258","0.0-6.0-1.116","DIGA","3","m","rechts","58","","","self","j","30","true"
"null","<div style=""font-size:60px;"">+</div>","null","html-keyboard-response","240","269563","0.0-6.0-0.117","DIGA","3","m","rechts","58","","fixation","","","",""
"1086","img/0_30.png","74","image-keyboard-response","241","270649","0.0-6.0-1.117","DIGA","3","m","rechts","58","","","self","j","0","true"
"null","<div style=""font-size:60px;"">+</div>","null","html-keyboard-response","242","271052","0.0-6.0-0.118","DIGA","3","m","rechts","58","","fixation","","","",""
"2229","img/60_210.png","74","image-keyboard-response","243","273281","0.0-6.0-1.118","DIGA","3","m","rechts","58","","","self","j","60","true"
"null","<div style=""font-size:60px;"">+</div>","null","html-keyboard-response","244","273633","0.0-6.0-0.119","DIGA","3","m","rechts","58","","fixation","","","",""
"1204","img/0_90.png","74","image-keyboard-response","245","274838","0.0-6.0-1.119","DIGA","3","m","rechts","58","","","self","j","0","true"
"null","<div style=""font-size:60px;"">+</div>","null","html-keyboard-response","246","275244","0.0-6.0-0.120","DIGA","3","m","rechts","58","","fixation","","","",""
"1527","img/120_90.png","70","image-keyboard-response","247","276772","0.0-6.0-1.120","DIGA","3","m","rechts","58","","","self","f","120","true"
"null","<div style=""font-size:60px;"">+</div>","null","html-keyboard-response","248","277078","0.0-6.0-0.121","DIGA","3","m","rechts","58","","fixation","","","",""
"1785","img/30_120.png","74","image-keyboard-response","249","278863","0.0-6.0-1.121","DIGA","3","m","rechts","58","","","self","j","30","true"
"null","<div style=""font-size:60px;"">+</div>","null","html-keyboard-response","250","279369","0.0-6.0-0.122","DIGA","3","m","rechts","58","","fixation","","","",""
"1792","img/120_30.png","74","image-keyboard-response","251","281162","0.0-6.0-1.122","DIGA","3","m","rechts","58","","","self","j","120","true"
"null","<div style=""font-size:60px;"">+</div>","null","html-keyboard-response","252","281567","0.0-6.0-0.123","DIGA","3","m","rechts","58","","fixation","","","",""
"1866","img/120_270.png","74","image-keyboard-response","253","283433","0.0-6.0-1.123","DIGA","3","m","rechts","58","","","self","j","120","true"
"null","<div style=""font-size:60px;"">+</div>","null","html-keyboard-response","254","283935","0.0-6.0-0.124","DIGA","3","m","rechts","58","","fixation","","","",""
"1466","img/150_240.png","74","image-keyboard-response","255","285402","0.0-6.0-1.124","DIGA","3","m","rechts","58","","","self","j","150","true"
"null","<div style=""font-size:60px;"">+</div>","null","html-keyboard-response","256","285706","0.0-6.0-0.125","DIGA","3","m","rechts","58","","fixation","","","",""
"1340","img/150_270.png","74","image-keyboard-response","257","287047","0.0-6.0-1.125","DIGA","3","m","rechts","58","","","self","j","150","true"
"null","<div style=""font-size:60px;"">+</div>","null","html-keyboard-response","258","287452","0.0-6.0-0.126","DIGA","3","m","rechts","58","","fixation","","","",""
"1447","img/90_240.png","74","image-keyboard-response","259","288899","0.0-6.0-1.126","DIGA","3","m","rechts","58","","","self","j","90","true"
"null","<div style=""font-size:60px;"">+</div>","null","html-keyboard-response","260","289200","0.0-6.0-0.127","DIGA","3","m","rechts","58","","fixation","","","",""
"1558","img/60_90.png","70","image-keyboard-response","261","290759","0.0-6.0-1.127","DIGA","3","m","rechts","58","","","self","j","60","false"
"null","<div style=""font-size:60px;"">+</div>","null","html-keyboard-response","262","291114","0.0-6.0-0.128","DIGA","3","m","rechts","58","","fixation","","","",""
"1680","img/L90_180.png","70","image-keyboard-response","263","292795","0.0-6.0-1.128","DIGA","3","m","rechts","58","","","self","f","90","true"
"null","<div style=""font-size:60px;"">+</div>","null","html-keyboard-response","264","293247","0.0-6.0-0.129","DIGA","3","m","rechts","58","","fixation","","","",""
"1604","img/60_180.png","74","image-keyboard-response","265","294851","0.0-6.0-1.129","DIGA","3","m","rechts","58","","","self","j","60","true"
"null","<div style=""font-size:60px;"">+</div>","null","html-keyboard-response","266","295206","0.0-6.0-0.130","DIGA","3","m","rechts","58","","fixation","","","",""
"1693","img/30_60.png","74","image-keyboard-response","267","296899","0.0-6.0-1.130","DIGA","3","m","rechts","58","","","self","j","30","true"
"null","<div style=""font-size:60px;"">+</div>","null","html-keyboard-response","268","297206","0.0-6.0-0.131","DIGA","3","m","rechts","58","","fixation","","","",""
"1504","img/150_120.png","70","image-keyboard-response","269","298710","0.0-6.0-1.131","DIGA","3","m","rechts","58","","","self","f","150","true"
"null","<div style=""font-size:60px;"">+</div>","null","html-keyboard-response","270","299116","0.0-6.0-0.132","DIGA","3","m","rechts","58","","fixation","","","",""
"1776","img/60_330.png","74","image-keyboard-response","271","300892","0.0-6.0-1.132","DIGA","3","m","rechts","58","","","self","f","60","false"
"null","<div style=""font-size:60px;"">+</div>","null","html-keyboard-response","272","301395","0.0-6.0-0.133","DIGA","3","m","rechts","58","","fixation","","","",""
"1680","img/90_180.png","74","image-keyboard-response","273","303075","0.0-6.0-1.133","DIGA","3","m","rechts","58","","","self","j","90","true"
"null","<div style=""font-size:60px;"">+</div>","null","html-keyboard-response","274","303480","0.0-6.0-0.134","DIGA","3","m","rechts","58","","fixation","","","",""
"1863","img/L60_180.png","70","image-keyboard-response","275","305343","0.0-6.0-1.134","DIGA","3","m","rechts","58","","","self","f","60","true"
"null","<div style=""font-size:60px;"">+</div>","null","html-keyboard-response","276","305749","0.0-6.0-0.135","DIGA","3","m","rechts","58","","fixation","","","",""
"1737","img/30_300.png","70","image-keyboard-response","277","307487","0.0-6.0-1.135","DIGA","3","m","rechts","58","","","self","f","30","true"
"null","<div style=""font-size:60px;"">+</div>","null","html-keyboard-response","278","307890","0.0-6.0-0.136","DIGA","3","m","rechts","58","","fixation","","","",""
"null","img/150_180.png","null","image-keyboard-response","279","310895","0.0-6.0-1.136","DIGA","3","m","rechts","58","","","self","j","150","false"
"null","<div style=""font-size:60px;"">+</div>","null","html-keyboard-response","280","311349","0.0-6.0-0.137","DIGA","3","m","rechts","58","","fixation","","","",""
"946","img/L120_180.png","70","image-keyboard-response","281","312296","0.0-6.0-1.137","DIGA","3","m","rechts","58","","","self","f","120","true"
"null","<div style=""font-size:60px;"">+</div>","null","html-keyboard-response","282","312801","0.0-6.0-0.138","DIGA","3","m","rechts","58","","fixation","","","",""
"1672","img/150_90.png","70","image-keyboard-response","283","314475","0.0-6.0-1.138","DIGA","3","m","rechts","58","","","self","f","150","true"
"null","<div style=""font-size:60px;"">+</div>","null","html-keyboard-response","284","314827","0.0-6.0-0.139","DIGA","3","m","rechts","58","","fixation","","","",""
"1457","img/150_300.png","74","image-keyboard-response","285","316284","0.0-6.0-1.139","DIGA","3","m","rechts","58","","","self","j","150","true"
"null","<div style=""font-size:60px;"">+</div>","null","html-keyboard-response","286","316636","0.0-6.0-0.140","DIGA","3","m","rechts","58","","fixation","","","",""
"1464","img/150_60.png","70","image-keyboard-response","287","318101","0.0-6.0-1.140","DIGA","3","m","rechts","58","","","self","f","150","true"
"null","<div style=""font-size:60px;"">+</div>","null","html-keyboard-response","288","318454","0.0-6.0-0.141","DIGA","3","m","rechts","58","","fixation","","","",""
"1068","img/0_240.png","70","image-keyboard-response","289","319524","0.0-6.0-1.141","DIGA","3","m","rechts","58","","","self","f","0","true"
"null","<div style=""font-size:60px;"">+</div>","null","html-keyboard-response","290","319980","0.0-6.0-0.142","DIGA","3","m","rechts","58","","fixation","","","",""
"1313","img/30_180.png","74","image-keyboard-response","291","321293","0.0-6.0-1.142","DIGA","3","m","rechts","58","","","self","j","30","true"
"null","<div style=""font-size:60px;"">+</div>","null","html-keyboard-response","292","321748","0.0-6.0-0.143","DIGA","3","m","rechts","58","","fixation","","","",""
"1083","img/120_150.png","70","image-keyboard-response","293","322832","0.0-6.0-1.143","DIGA","3","m","rechts","58","","","self","f","120","true"
"null","<div style=""font-size:60px;"">+</div>","null","html-keyboard-response","294","323236","0.0-6.0-0.144","DIGA","3","m","rechts","58","","fixation","","","",""
"960","img/0_60.png","74","image-keyboard-response","295","324197","0.0-6.0-1.144","DIGA","3","m","rechts","58","","","self","j","0","true"
"null","<div style=""font-size:60px;"">+</div>","null","html-keyboard-response","296","324703","0.0-6.0-0.145","DIGA","3","m","rechts","58","","fixation","","","",""
"1262","img/90_120.png","70","image-keyboard-response","297","325965","0.0-6.0-1.145","DIGA","3","m","rechts","58","","","self","f","90","true"
"null","<div style=""font-size:60px;"">+</div>","null","html-keyboard-response","298","326271","0.0-6.0-0.146","DIGA","3","m","rechts","58","","fixation","","","",""
"1041","img/0_150.png","74","image-keyboard-response","299","327312","0.0-6.0-1.146","DIGA","3","m","rechts","58","","","self","j","0","true"
"null","<div style=""font-size:60px;"">+</div>","null","html-keyboard-response","300","327817","0.0-6.0-0.147","DIGA","3","m","rechts","58","","fixation","","","",""
"1201","img/120_180.png","74","image-keyboard-response","301","329018","0.0-6.0-1.147","DIGA","3","m","rechts","58","","","self","j","120","true"
"null","<div style=""font-size:60px;"">+</div>","null","html-keyboard-response","302","329370","0.0-6.0-0.148","DIGA","3","m","rechts","58","","fixation","","","",""
"1766","img/0_210.png","70","image-keyboard-response","303","331137","0.0-6.0-1.148","DIGA","3","m","rechts","58","","","self","f","0","true"
"null","<div style=""font-size:60px;"">+</div>","null","html-keyboard-response","304","331439","0.0-6.0-0.149","DIGA","3","m","rechts","58","","fixation","","","",""
"1711","img/L150_180.png","70","image-keyboard-response","305","333151","0.0-6.0-1.149","DIGA","3","m","rechts","58","","","self","f","150","true"
"null","<div style=""font-size:60px;"">+</div>","null","html-keyboard-response","306","333503","0.0-6.0-0.150","DIGA","3","m","rechts","58","","fixation","","","",""
"1491","img/60_150.png","70","image-keyboard-response","307","334995","0.0-6.0-1.150","DIGA","3","m","rechts","58","","","self","f","60","true"
"null","<div style=""font-size:60px;"">+</div>","null","html-keyboard-response","308","335300","0.0-6.0-0.151","DIGA","3","m","rechts","58","","fixation","","","",""
"1397","img/60_270.png","70","image-keyboard-response","309","336698","0.0-6.0-1.151","DIGA","3","m","rechts","58","","","self","f","60","true"
"null","<div style=""font-size:60px;"">+</div>","null","html-keyboard-response","310","337054","0.0-6.0-0.152","DIGA","3","m","rechts","58","","fixation","","","",""
"1825","img/90_30.png","74","image-keyboard-response","311","338880","0.0-6.0-1.152","DIGA","3","m","rechts","58","","","self","j","90","true"
"null","<div style=""font-size:60px;"">+</div>","null","html-keyboard-response","312","339184","0.0-6.0-0.153","DIGA","3","m","rechts","58","","fixation","","","",""
"1910","img/30_240.png","74","image-keyboard-response","313","341095","0.0-6.0-1.153","DIGA","3","m","rechts","58","","","self","f","30","false"
"null","<div style=""font-size:60px;"">+</div>","null","html-keyboard-response","314","341501","0.0-6.0-0.154","DIGA","3","m","rechts","58","","fixation","","","",""
"2185","img/0_270.png","70","image-keyboard-response","315","343687","0.0-6.0-1.154","DIGA","3","m","rechts","58","","","self","f","0","true"
"null","<div style=""font-size:60px;"">+</div>","null","html-keyboard-response","316","344090","0.0-6.0-0.155","DIGA","3","m","rechts","58","","fixation","","","",""
"1528","img/30_270.png","70","image-keyboard-response","317","345618","0.0-6.0-1.155","DIGA","3","m","rechts","58","","","self","f","30","true"
"null","<div style=""font-size:60px;"">+</div>","null","html-keyboard-response","318","345974","0.0-6.0-0.156","DIGA","3","m","rechts","58","","fixation","","","",""
"1489","img/30_270.png","70","image-keyboard-response","319","347465","0.0-6.0-1.156","DIGA","3","m","rechts","58","","","self","f","30","true"
"null","<div style=""font-size:60px;"">+</div>","null","html-keyboard-response","320","347769","0.0-6.0-0.157","DIGA","3","m","rechts","58","","fixation","","","",""
"1763","img/60_270.png","70","image-keyboard-response","321","349533","0.0-6.0-1.157","DIGA","3","m","rechts","58","","","self","f","60","true"
"null","<div style=""font-size:60px;"">+</div>","null","html-keyboard-response","322","350039","0.0-6.0-0.158","DIGA","3","m","rechts","58","","fixation","","","",""
"1889","img/60_30.png","74","image-keyboard-response","323","351929","0.0-6.0-1.158","DIGA","3","m","rechts","58","","","self","j","60","true"
"null","<div style=""font-size:60px;"">+</div>","null","html-keyboard-response","324","352433","0.0-6.0-0.159","DIGA","3","m","rechts","58","","fixation","","","",""
"1507","img/150_60.png","70","image-keyboard-response","325","353940","0.0-6.0-1.159","DIGA","3","m","rechts","58","","","self","f","150","true"
"null","<div style=""font-size:60px;"">+</div>","null","html-keyboard-response","326","354295","0.0-6.0-0.160","DIGA","3","m","rechts","58","","fixation","","","",""
"1739","img/0_90.png","74","image-keyboard-response","327","356035","0.0-6.0-1.160","DIGA","3","m","rechts","58","","","self","j","0","true"
"null","<div style=""font-size:60px;"">+</div>","null","html-keyboard-response","328","356537","0.0-6.0-0.161","DIGA","3","m","rechts","58","","fixation","","","",""
"1070","img/L90_180.png","70","image-keyboard-response","329","357607","0.0-6.0-1.161","DIGA","3","m","rechts","58","","","self","f","90","true"
"null","<div style=""font-size:60px;"">+</div>","null","html-keyboard-response","330","357962","0.0-6.0-0.162","DIGA","3","m","rechts","58","","fixation","","","",""
"1733","img/150_120.png","70","image-keyboard-response","331","359696","0.0-6.0-1.162","DIGA","3","m","rechts","58","","","self","f","150","true"
"null","<div style=""font-size:60px;"">+</div>","null","html-keyboard-response","332","360001","0.0-6.0-0.163","DIGA","3","m","rechts","58","","fixation","","","",""
"1490","img/0_270.png","70","image-keyboard-response","333","361492","0.0-6.0-1.163","DIGA","3","m","rechts","58","","","self","f","0","true"
"null","<div style=""font-size:60px;"">+</div>","null","html-keyboard-response","334","361896","0.0-6.0-0.164","DIGA","3","m","rechts","58","","fixation","","","",""
"1603","img/90_300.png","70","image-keyboard-response","335","363500","0.0-6.0-1.164","DIGA","3","m","rechts","58","","","self","f","90","true"
"null","<div style=""font-size:60px;"">+</div>","null","html-keyboard-response","336","363854","0.0-6.0-0.165","DIGA","3","m","rechts","58","","fixation","","","",""
"1173","img/0_150.png","74","image-keyboard-response","337","365028","0.0-6.0-1.165","DIGA","3","m","rechts","58","","","self","j","0","true"
"null","<div style=""font-size:60px;"">+</div>","null","html-keyboard-response","338","365433","0.0-6.0-0.166","DIGA","3","m","rechts","58","","fixation","","","",""
"2045","img/60_330.png","70","image-keyboard-response","339","367479","0.0-6.0-1.166","DIGA","3","m","rechts","58","","","self","f","60","true"
"null","<div style=""font-size:60px;"">+</div>","null","html-keyboard-response","340","367982","0.0-6.0-0.167","DIGA","3","m","rechts","58","","fixation","","","",""
"1384","img/90_150.png","70","image-keyboard-response","341","369367","0.0-6.0-1.167","DIGA","3","m","rechts","58","","","self","f","90","true"
"null","<div style=""font-size:60px;"">+</div>","null","html-keyboard-response","342","369773","0.0-6.0-0.168","DIGA","3","m","rechts","58","","fixation","","","",""
"1442","img/0_330.png","70","image-keyboard-response","343","371215","0.0-6.0-1.168","DIGA","3","m","rechts","58","","","self","f","0","true"
"null","<div style=""font-size:60px;"">+</div>","null","html-keyboard-response","344","371668","0.0-6.0-0.169","DIGA","3","m","rechts","58","","fixation","","","",""
"1419","img/60_180.png","74","image-keyboard-response","345","373087","0.0-6.0-1.169","DIGA","3","m","rechts","58","","","self","j","60","true"
"null","<div style=""font-size:60px;"">+</div>","null","html-keyboard-response","346","373593","0.0-6.0-0.170","DIGA","3","m","rechts","58","","fixation","","","",""
"1116","img/0_210.png","70","image-keyboard-response","347","374709","0.0-6.0-1.170","DIGA","3","m","rechts","58","","","self","f","0","true"
"null","<div style=""font-size:60px;"">+</div>","null","html-keyboard-response","348","375116","0.0-6.0-0.171","DIGA","3","m","rechts","58","","fixation","","","",""
"1908","img/120_30.png","74","image-keyboard-response","349","377026","0.0-6.0-1.171","DIGA","3","m","rechts","58","","","self","j","120","true"
"null","<div style=""font-size:60px;"">+</div>","null","html-keyboard-response","350","377327","0.0-6.0-0.172","DIGA","3","m","rechts","58","","fixation","","","",""
"1534","img/90_210.png","74","image-keyboard-response","351","378862","0.0-6.0-1.172","DIGA","3","m","rechts","58","","","self","j","90","true"
"null","<div style=""font-size:60px;"">+</div>","null","html-keyboard-response","352","379166","0.0-6.0-0.173","DIGA","3","m","rechts","58","","fixation","","","",""
"1250","img/150_180.png","74","image-keyboard-response","353","380417","0.0-6.0-1.173","DIGA","3","m","rechts","58","","","self","j","150","true"
"null","<div style=""font-size:60px;"">+</div>","null","html-keyboard-response","354","380722","0.0-6.0-0.174","DIGA","3","m","rechts","58","","fixation","","","",""
"1407","img/150_240.png","74","image-keyboard-response","355","382131","0.0-6.0-1.174","DIGA","3","m","rechts","58","","","self","j","150","true"
"null","<div style=""font-size:60px;"">+</div>","null","html-keyboard-response","356","382487","0.0-6.0-0.175","DIGA","3","m","rechts","58","","fixation","","","",""
"1666","img/30_300.png","70","image-keyboard-response","357","384154","0.0-6.0-1.175","DIGA","3","m","rechts","58","","","self","f","30","true"
"null","<div style=""font-size:60px;"">+</div>","null","html-keyboard-response","358","384460","0.0-6.0-0.176","DIGA","3","m","rechts","58","","fixation","","","",""
"1370","img/0_30.png","74","image-keyboard-response","359","385831","0.0-6.0-1.176","DIGA","3","m","rechts","58","","","self","j","0","true"
"null","<div style=""font-size:60px;"">+</div>","null","html-keyboard-response","360","386183","0.0-6.0-0.177","DIGA","3","m","rechts","58","","fixation","","","",""
"1766","img/90_60.png","74","image-keyboard-response","361","387950","0.0-6.0-1.177","DIGA","3","m","rechts","58","","","self","j","90","true"
"null","<div style=""font-size:60px;"">+</div>","null","html-keyboard-response","362","388256","0.0-6.0-0.178","DIGA","3","m","rechts","58","","fixation","","","",""
"1655","img/60_90.png","74","image-keyboard-response","363","389912","0.0-6.0-1.178","DIGA","3","m","rechts","58","","","self","j","60","true"
"null","<div style=""font-size:60px;"">+</div>","null","html-keyboard-response","364","390316","0.0-6.0-0.179","DIGA","3","m","rechts","58","","fixation","","","",""
"1448","img/L30_180.png","70","image-keyboard-response","365","391765","0.0-6.0-1.179","DIGA","3","m","rechts","58","","","self","f","30","true"
"null","<div style=""font-size:60px;"">+</div>","null","html-keyboard-response","366","392220","0.0-6.0-0.180","DIGA","3","m","rechts","58","","fixation","","","",""
"1397","img/60_150.png","70","image-keyboard-response","367","393619","0.0-6.0-1.180","DIGA","3","m","rechts","58","","","self","f","60","true"
"null","<div style=""font-size:60px;"">+</div>","null","html-keyboard-response","368","393921","0.0-6.0-0.181","DIGA","3","m","rechts","58","","fixation","","","",""
"1554","img/L120_180.png","70","image-keyboard-response","369","395475","0.0-6.0-1.181","DIGA","3","m","rechts","58","","","self","f","120","true"
"null","<div style=""font-size:60px;"">+</div>","null","html-keyboard-response","370","395877","0.0-6.0-0.182","DIGA","3","m","rechts","58","","fixation","","","",""
"1411","img/30_180.png","74","image-keyboard-response","371","397288","0.0-6.0-1.182","DIGA","3","m","rechts","58","","","self","j","30","true"
"null","<div style=""font-size:60px;"">+</div>","null","html-keyboard-response","372","397744","0.0-6.0-0.183","DIGA","3","m","rechts","58","","fixation","","","",""
"1084","img/60_210.png","74","image-keyboard-response","373","398829","0.0-6.0-1.183","DIGA","3","m","rechts","58","","","self","j","60","true"
"null","<div style=""font-size:60px;"">+</div>","null","html-keyboard-response","374","399230","0.0-6.0-0.184","DIGA","3","m","rechts","58","","fixation","","","",""
"1173","img/150_90.png","70","image-keyboard-response","375","400403","0.0-6.0-1.184","DIGA","3","m","rechts","58","","","self","f","150","true"
"null","<div style=""font-size:60px;"">+</div>","null","html-keyboard-response","376","400908","0.0-6.0-0.185","DIGA","3","m","rechts","58","","fixation","","","",""
"1717","img/90_30.png","74","image-keyboard-response","377","402626","0.0-6.0-1.185","DIGA","3","m","rechts","58","","","self","j","90","true"
"null","<div style=""font-size:60px;"">+</div>","null","html-keyboard-response","378","402981","0.0-6.0-0.186","DIGA","3","m","rechts","58","","fixation","","","",""
"1259","img/120_210.png","74","image-keyboard-response","379","404242","0.0-6.0-1.186","DIGA","3","m","rechts","58","","","self","j","120","true"
"null","<div style=""font-size:60px;"">+</div>","null","html-keyboard-response","380","404547","0.0-6.0-0.187","DIGA","3","m","rechts","58","","fixation","","","",""
"1742","img/L150_180.png","70","image-keyboard-response","381","406290","0.0-6.0-1.187","DIGA","3","m","rechts","58","","","self","f","150","true"
"null","<div style=""font-size:60px;"">+</div>","null","html-keyboard-response","382","406695","0.0-6.0-0.188","DIGA","3","m","rechts","58","","fixation","","","",""
"1443","img/150_300.png","70","image-keyboard-response","383","408140","0.0-6.0-1.188","DIGA","3","m","rechts","58","","","self","j","150","false"
"null","<div style=""font-size:60px;"">+</div>","null","html-keyboard-response","384","408545","0.0-6.0-0.189","DIGA","3","m","rechts","58","","fixation","","","",""
"1420","img/150_270.png","70","image-keyboard-response","385","409966","0.0-6.0-1.189","DIGA","3","m","rechts","58","","","self","j","150","false"
"null","<div style=""font-size:60px;"">+</div>","null","html-keyboard-response","386","410422","0.0-6.0-0.190","DIGA","3","m","rechts","58","","fixation","","","",""
"1590","img/120_90.png","70","image-keyboard-response","387","412012","0.0-6.0-1.190","DIGA","3","m","rechts","58","","","self","f","120","true"
"null","<div style=""font-size:60px;"">+</div>","null","html-keyboard-response","388","412516","0.0-6.0-0.191","DIGA","3","m","rechts","58","","fixation","","","",""
"1275","img/0_240.png","70","image-keyboard-response","389","413791","0.0-6.0-1.191","DIGA","3","m","rechts","58","","","self","f","0","true"
"null","<div style=""font-size:60px;"">+</div>","null","html-keyboard-response","390","414095","0.0-6.0-0.192","DIGA","3","m","rechts","58","","fixation","","","",""
"1593","img/30_240.png","74","image-keyboard-response","391","415689","0.0-6.0-1.192","DIGA","3","m","rechts","58","","","self","f","30","false"
"null","<div style=""font-size:60px;"">+</div>","null","html-keyboard-response","392","416191","0.0-6.0-0.193","DIGA","3","m","rechts","58","","fixation","","","",""
"1076","img/0_60.png","74","image-keyboard-response","393","417268","0.0-6.0-1.193","DIGA","3","m","rechts","58","","","self","j","0","true"
"null","<div style=""font-size:60px;"">+</div>","null","html-keyboard-response","394","417623","0.0-6.0-0.194","DIGA","3","m","rechts","58","","fixation","","","",""
"1183","img/0_120.png","74","image-keyboard-response","395","418807","0.0-6.0-1.194","DIGA","3","m","rechts","58","","","self","j","0","true"
"null","<div style=""font-size:60px;"">+</div>","null","html-keyboard-response","396","419209","0.0-6.0-0.195","DIGA","3","m","rechts","58","","fixation","","","",""
"1166","img/120_180.png","74","image-keyboard-response","397","420377","0.0-6.0-1.195","DIGA","3","m","rechts","58","","","self","j","120","true"
"null","<div style=""font-size:60px;"">+</div>","null","html-keyboard-response","398","420682","0.0-6.0-0.196","DIGA","3","m","rechts","58","","fixation","","","",""
"1360","img/90_180.png","74","image-keyboard-response","399","422043","0.0-6.0-1.196","DIGA","3","m","rechts","58","","","self","j","90","true"
"null","<div style=""font-size:60px;"">+</div>","null","html-keyboard-response","400","422548","0.0-6.0-0.197","DIGA","3","m","rechts","58","","fixation","","","",""
"1172","img/90_120.png","70","image-keyboard-response","401","423721","0.0-6.0-1.197","DIGA","3","m","rechts","58","","","self","f","90","true"
"null","<div style=""font-size:60px;"">+</div>","null","html-keyboard-response","402","424023","0.0-6.0-0.198","DIGA","3","m","rechts","58","","fixation","","","",""
"1290","img/0_300.png","70","image-keyboard-response","403","425315","0.0-6.0-1.198","DIGA","3","m","rechts","58","","","self","f","0","true"
"null","<div style=""font-size:60px;"">+</div>","null","html-keyboard-response","404","425819","0.0-6.0-0.199","DIGA","3","m","rechts","58","","fixation","","","",""
"1591","img/30_60.png","74","image-keyboard-response","405","427411","0.0-6.0-1.199","DIGA","3","m","rechts","58","","","self","j","30","true"
"null","<div style=""font-size:60px;"">+</div>","null","html-keyboard-response","406","427866","0.0-6.0-0.200","DIGA","3","m","rechts","58","","fixation","","","",""
"1475","img/90_240.png","74","image-keyboard-response","407","429343","0.0-6.0-1.200","DIGA","3","m","rechts","58","","","self","j","90","true"
"null","<div style=""font-size:60px;"">+</div>","null","html-keyboard-response","408","429699","0.0-6.0-0.201","DIGA","3","m","rechts","58","","fixation","","","",""
"1433","img/30_90.png","74","image-keyboard-response","409","431132","0.0-6.0-1.201","DIGA","3","m","rechts","58","","","self","j","30","true"
"null","<div style=""font-size:60px;"">+</div>","null","html-keyboard-response","410","431637","0.0-6.0-0.202","DIGA","3","m","rechts","58","","fixation","","","",""
"1234","img/120_270.png","74","image-keyboard-response","411","432871","0.0-6.0-1.202","DIGA","3","m","rechts","58","","","self","j","120","true"
"null","<div style=""font-size:60px;"">+</div>","null","html-keyboard-response","412","433226","0.0-6.0-0.203","DIGA","3","m","rechts","58","","fixation","","","",""
"1125","img/120_150.png","70","image-keyboard-response","413","434352","0.0-6.0-1.203","DIGA","3","m","rechts","58","","","self","f","120","true"
"null","<div style=""font-size:60px;"">+</div>","null","html-keyboard-response","414","434805","0.0-6.0-0.204","DIGA","3","m","rechts","58","","fixation","","","",""
"1237","img/90_330.png","70","image-keyboard-response","415","436043","0.0-6.0-1.204","DIGA","3","m","rechts","58","","","self","f","90","true"
"null","<div style=""font-size:60px;"">+</div>","null","html-keyboard-response","416","436396","0.0-6.0-0.205","DIGA","3","m","rechts","58","","fixation","","","",""
"1642","img/30_120.png","74","image-keyboard-response","417","438038","0.0-6.0-1.205","DIGA","3","m","rechts","58","","","self","j","30","true"
"null","<div style=""font-size:60px;"">+</div>","null","html-keyboard-response","418","438343","0.0-6.0-0.206","DIGA","3","m","rechts","58","","fixation","","","",""
"1216","img/120_330.png","70","image-keyboard-response","419","439560","0.0-6.0-1.206","DIGA","3","m","rechts","58","","","self","f","120","true"
"null","<div style=""font-size:60px;"">+</div>","null","html-keyboard-response","420","440013","0.0-6.0-0.207","DIGA","3","m","rechts","58","","fixation","","","",""
"1433","img/L60_180.png","70","image-keyboard-response","421","441446","0.0-6.0-1.207","DIGA","3","m","rechts","58","","","self","f","60","true"
"37783","<p>Du hast in 91% der Versuche korrekt entschieden.</p><p>Deine durchschnittliche Reaktionszeit war  1407ms.</p><p>Dr&uuml;cke eine beliebige Taste, um die Session zu beenden. Vielen Dank!</p>","72","html-keyboard-response","422","479231","0.0-7.0","DIGA","3","m","rechts","58","","","","","",""
