"rt","stimulus","key_press","trial_type","trial_index","time_elapsed","internal_node_id","subject","session","sex","handedness","age","responses","test_part","condition","correct_response","angle","correct"
"1199","<p>Mental Rotation Experiment.</p> <p>Dr&uuml;cke eine beliebige Taste, um anzufangen.</p>","74","html-keyboard-response","0","1200","0.0-0.0","ANBL","4","f","rechts","21","","","","","",""
"4081","","","survey-text","1","5282","0.0-1.0","ANBL","4","f","rechts","21","{""Q0"":""ANBL""}","","","","",""
"1720","","","survey-text","2","7002","0.0-2.0","ANBL","4","f","rechts","21","{""Q0"":""4""}","","","","",""
"3202","","","survey-multi-choice","3","10208","0.0-3.0","ANBL","4","f","rechts","21","{""Q0"":""f"",""Q1"":""rechts""}","","","","",""
"2128","","","survey-text","4","12337","0.0-4.0","ANBL","4","f","rechts","21","{""Q0"":""21""}","","","","",""
"260856","<p>Stell dir vor, dass du vor einem runden Tisch stehst, auf dem sich ein blauer Ball am Tischrand befindet. Entlang des Tischrands ist jeweils ein verschieden langer Pfeil. Nun bleibst du an deinem Platz vor dem Tisch und rotierst den Tisch entlang des Pfeils (gleiche Richtung und Länge). </p> <img src='img/30_180.png'></img> <br><p> Nachdem du diese (vorgestellte) Rotation durchgef&uuml;hrt hast, schau in Richtung der Tischmitte, und entscheide dann, ob der Ball links oder rechts von dir liegt.</p> <p>Dr&uuml;cke die <strong>'f'</strong>-Taste f&uuml;r links, die <strong>'j'</strong>-Taste f&uuml;r rechts.</p><br><p> Das Bild wird jeweils 1 Sekunde lang pr&auml;sentiert. Du hast 3 Sekunden Zeit eine Entscheidung zu treffen.</p>","74","html-keyboard-response","5","273195","0.0-5.0","ANBL","4","f","rechts","21","","","","","",""
"null","<div style=""font-size:60px;"">+</div>","null","html-keyboard-response","6","274698","0.0-6.0-0.0","ANBL","4","f","rechts","21","","fixation","","","",""
"1234","img/120_90.png","70","image-keyboard-response","7","275933","0.0-6.0-1.0","ANBL","4","f","rechts","21","","","object","f","120","true"
"null","<div style=""font-size:60px;"">+</div>","null","html-keyboard-response","8","276284","0.0-6.0-0.1","ANBL","4","f","rechts","21","","fixation","","","",""
"1166","img/150_120.png","70","image-keyboard-response","9","277451","0.0-6.0-1.1","ANBL","4","f","rechts","21","","","object","f","150","true"
"null","<div style=""font-size:60px;"">+</div>","null","html-keyboard-response","10","277753","0.0-6.0-0.2","ANBL","4","f","rechts","21","","fixation","","","",""
"1299","img/30_270.png","70","image-keyboard-response","11","279054","0.0-6.0-1.2","ANBL","4","f","rechts","21","","","object","f","30","true"
"null","<div style=""font-size:60px;"">+</div>","null","html-keyboard-response","12","279505","0.0-6.0-0.3","ANBL","4","f","rechts","21","","fixation","","","",""
"788","img/0_240.png","70","image-keyboard-response","13","280296","0.0-6.0-1.3","ANBL","4","f","rechts","21","","","object","f","0","true"
"null","<div style=""font-size:60px;"">+</div>","null","html-keyboard-response","14","280597","0.0-6.0-0.4","ANBL","4","f","rechts","21","","fixation","","","",""
"1736","img/L90_180.png","74","image-keyboard-response","15","282334","0.0-6.0-1.4","ANBL","4","f","rechts","21","","","object","j","90","true"
"null","<div style=""font-size:60px;"">+</div>","null","html-keyboard-response","16","282835","0.0-6.0-0.5","ANBL","4","f","rechts","21","","fixation","","","",""
"1823","img/90_210.png","70","image-keyboard-response","17","284659","0.0-6.0-1.5","ANBL","4","f","rechts","21","","","object","f","90","true"
"null","<div style=""font-size:60px;"">+</div>","null","html-keyboard-response","18","285011","0.0-6.0-0.6","ANBL","4","f","rechts","21","","fixation","","","",""
"1440","img/120_180.png","70","image-keyboard-response","19","286451","0.0-6.0-1.6","ANBL","4","f","rechts","21","","","object","f","120","true"
"null","<div style=""font-size:60px;"">+</div>","null","html-keyboard-response","20","286953","0.0-6.0-0.7","ANBL","4","f","rechts","21","","fixation","","","",""
"896","img/0_30.png","74","image-keyboard-response","21","287851","0.0-6.0-1.7","ANBL","4","f","rechts","21","","","object","j","0","true"
"null","<div style=""font-size:60px;"">+</div>","null","html-keyboard-response","22","288202","0.0-6.0-0.8","ANBL","4","f","rechts","21","","fixation","","","",""
"1847","img/90_240.png","70","image-keyboard-response","23","290051","0.0-6.0-1.8","ANBL","4","f","rechts","21","","","object","f","90","true"
"null","<div style=""font-size:60px;"">+</div>","null","html-keyboard-response","24","290452","0.0-6.0-0.9","ANBL","4","f","rechts","21","","fixation","","","",""
"1224","img/60_330.png","74","image-keyboard-response","25","291677","0.0-6.0-1.9","ANBL","4","f","rechts","21","","","object","j","60","true"
"null","<div style=""font-size:60px;"">+</div>","null","html-keyboard-response","26","292129","0.0-6.0-0.10","ANBL","4","f","rechts","21","","fixation","","","",""
"1301","img/90_300.png","74","image-keyboard-response","27","293431","0.0-6.0-1.10","ANBL","4","f","rechts","21","","","object","j","90","true"
"null","<div style=""font-size:60px;"">+</div>","null","html-keyboard-response","28","293783","0.0-6.0-0.11","ANBL","4","f","rechts","21","","fixation","","","",""
"1881","img/L150_180.png","74","image-keyboard-response","29","295665","0.0-6.0-1.11","ANBL","4","f","rechts","21","","","object","j","150","true"
"null","<div style=""font-size:60px;"">+</div>","null","html-keyboard-response","30","296017","0.0-6.0-0.12","ANBL","4","f","rechts","21","","fixation","","","",""
"1697","img/150_270.png","74","image-keyboard-response","31","297715","0.0-6.0-1.12","ANBL","4","f","rechts","21","","","object","j","150","true"
"null","<div style=""font-size:60px;"">+</div>","null","html-keyboard-response","32","298117","0.0-6.0-0.13","ANBL","4","f","rechts","21","","fixation","","","",""
"1085","img/30_60.png","74","image-keyboard-response","33","299203","0.0-6.0-1.13","ANBL","4","f","rechts","21","","","object","j","30","true"
"null","<div style=""font-size:60px;"">+</div>","null","html-keyboard-response","34","299555","0.0-6.0-0.14","ANBL","4","f","rechts","21","","fixation","","","",""
"1485","img/150_240.png","74","image-keyboard-response","35","301041","0.0-6.0-1.14","ANBL","4","f","rechts","21","","","object","j","150","true"
"null","<div style=""font-size:60px;"">+</div>","null","html-keyboard-response","36","301393","0.0-6.0-0.15","ANBL","4","f","rechts","21","","fixation","","","",""
"1722","img/90_60.png","70","image-keyboard-response","37","303116","0.0-6.0-1.15","ANBL","4","f","rechts","21","","","object","f","90","true"
"null","<div style=""font-size:60px;"">+</div>","null","html-keyboard-response","38","303418","0.0-6.0-0.16","ANBL","4","f","rechts","21","","fixation","","","",""
"800","img/0_120.png","74","image-keyboard-response","39","304219","0.0-6.0-1.16","ANBL","4","f","rechts","21","","","object","j","0","true"
"null","<div style=""font-size:60px;"">+</div>","null","html-keyboard-response","40","304671","0.0-6.0-0.17","ANBL","4","f","rechts","21","","fixation","","","",""
"1772","img/90_120.png","74","image-keyboard-response","41","306444","0.0-6.0-1.17","ANBL","4","f","rechts","21","","","object","j","90","true"
"null","<div style=""font-size:60px;"">+</div>","null","html-keyboard-response","42","306746","0.0-6.0-0.18","ANBL","4","f","rechts","21","","fixation","","","",""
"1092","img/90_30.png","70","image-keyboard-response","43","307840","0.0-6.0-1.18","ANBL","4","f","rechts","21","","","object","f","90","true"
"null","<div style=""font-size:60px;"">+</div>","null","html-keyboard-response","44","308191","0.0-6.0-0.19","ANBL","4","f","rechts","21","","fixation","","","",""
"2376","img/L30_180.png","74","image-keyboard-response","45","310569","0.0-6.0-1.19","ANBL","4","f","rechts","21","","","object","j","30","true"
"null","<div style=""font-size:60px;"">+</div>","null","html-keyboard-response","46","310870","0.0-6.0-0.20","ANBL","4","f","rechts","21","","fixation","","","",""
"1914","img/60_210.png","70","image-keyboard-response","47","312785","0.0-6.0-1.20","ANBL","4","f","rechts","21","","","object","f","60","true"
"null","<div style=""font-size:60px;"">+</div>","null","html-keyboard-response","48","313237","0.0-6.0-0.21","ANBL","4","f","rechts","21","","fixation","","","",""
"1270","img/L60_180.png","74","image-keyboard-response","49","314509","0.0-6.0-1.21","ANBL","4","f","rechts","21","","","object","j","60","true"
"null","<div style=""font-size:60px;"">+</div>","null","html-keyboard-response","50","314910","0.0-6.0-0.22","ANBL","4","f","rechts","21","","fixation","","","",""
"1513","img/30_180.png","70","image-keyboard-response","51","316425","0.0-6.0-1.22","ANBL","4","f","rechts","21","","","object","f","30","true"
"null","<div style=""font-size:60px;"">+</div>","null","html-keyboard-response","52","316826","0.0-6.0-0.23","ANBL","4","f","rechts","21","","fixation","","","",""
"772","img/0_330.png","70","image-keyboard-response","53","317600","0.0-6.0-1.23","ANBL","4","f","rechts","21","","","object","f","0","true"
"null","<div style=""font-size:60px;"">+</div>","null","html-keyboard-response","54","318051","0.0-6.0-0.24","ANBL","4","f","rechts","21","","fixation","","","",""
"917","img/150_300.png","74","image-keyboard-response","55","318970","0.0-6.0-1.24","ANBL","4","f","rechts","21","","","object","j","150","true"
"null","<div style=""font-size:60px;"">+</div>","null","html-keyboard-response","56","319371","0.0-6.0-0.25","ANBL","4","f","rechts","21","","fixation","","","",""
"2539","img/120_150.png","74","image-keyboard-response","57","321912","0.0-6.0-1.25","ANBL","4","f","rechts","21","","","object","j","120","true"
"null","<div style=""font-size:60px;"">+</div>","null","html-keyboard-response","58","322213","0.0-6.0-0.26","ANBL","4","f","rechts","21","","fixation","","","",""
"704","img/0_300.png","70","image-keyboard-response","59","322919","0.0-6.0-1.26","ANBL","4","f","rechts","21","","","object","f","0","true"
"null","<div style=""font-size:60px;"">+</div>","null","html-keyboard-response","60","323320","0.0-6.0-0.27","ANBL","4","f","rechts","21","","fixation","","","",""
"2015","img/60_180.png","70","image-keyboard-response","61","325337","0.0-6.0-1.27","ANBL","4","f","rechts","21","","","object","f","60","true"
"null","<div style=""font-size:60px;"">+</div>","null","html-keyboard-response","62","325688","0.0-6.0-0.28","ANBL","4","f","rechts","21","","fixation","","","",""
"1314","img/90_150.png","74","image-keyboard-response","63","327002","0.0-6.0-1.28","ANBL","4","f","rechts","21","","","object","j","90","true"
"null","<div style=""font-size:60px;"">+</div>","null","html-keyboard-response","64","327304","0.0-6.0-0.29","ANBL","4","f","rechts","21","","fixation","","","",""
"1719","img/60_90.png","74","image-keyboard-response","65","329024","0.0-6.0-1.29","ANBL","4","f","rechts","21","","","object","j","60","true"
"null","<div style=""font-size:60px;"">+</div>","null","html-keyboard-response","66","329426","0.0-6.0-0.30","ANBL","4","f","rechts","21","","fixation","","","",""
"1281","img/30_300.png","70","image-keyboard-response","67","330708","0.0-6.0-1.30","ANBL","4","f","rechts","21","","","object","f","30","true"
"null","<div style=""font-size:60px;"">+</div>","null","html-keyboard-response","68","331060","0.0-6.0-0.31","ANBL","4","f","rechts","21","","fixation","","","",""
"1582","img/30_240.png","70","image-keyboard-response","69","332643","0.0-6.0-1.31","ANBL","4","f","rechts","21","","","object","f","30","true"
"null","<div style=""font-size:60px;"">+</div>","null","html-keyboard-response","70","332995","0.0-6.0-0.32","ANBL","4","f","rechts","21","","fixation","","","",""
"2207","img/120_210.png","70","image-keyboard-response","71","335203","0.0-6.0-1.32","ANBL","4","f","rechts","21","","","object","f","120","true"
"null","<div style=""font-size:60px;"">+</div>","null","html-keyboard-response","72","335505","0.0-6.0-0.33","ANBL","4","f","rechts","21","","fixation","","","",""
"1191","img/30_120.png","74","image-keyboard-response","73","336697","0.0-6.0-1.33","ANBL","4","f","rechts","21","","","object","j","30","true"
"null","<div style=""font-size:60px;"">+</div>","null","html-keyboard-response","74","336999","0.0-6.0-0.34","ANBL","4","f","rechts","21","","fixation","","","",""
"733","img/0_60.png","74","image-keyboard-response","75","337733","0.0-6.0-1.34","ANBL","4","f","rechts","21","","","object","j","0","true"
"null","<div style=""font-size:60px;"">+</div>","null","html-keyboard-response","76","338184","0.0-6.0-0.35","ANBL","4","f","rechts","21","","fixation","","","",""
"1873","img/0_210.png","70","image-keyboard-response","77","340057","0.0-6.0-1.35","ANBL","4","f","rechts","21","","","object","f","0","true"
"null","<div style=""font-size:60px;"">+</div>","null","html-keyboard-response","78","340359","0.0-6.0-0.36","ANBL","4","f","rechts","21","","fixation","","","",""
"1189","img/150_60.png","70","image-keyboard-response","79","341549","0.0-6.0-1.36","ANBL","4","f","rechts","21","","","object","f","150","true"
"null","<div style=""font-size:60px;"">+</div>","null","html-keyboard-response","80","341950","0.0-6.0-0.37","ANBL","4","f","rechts","21","","fixation","","","",""
"926","img/60_30.png","70","image-keyboard-response","81","342877","0.0-6.0-1.37","ANBL","4","f","rechts","21","","","object","f","60","true"
"null","<div style=""font-size:60px;"">+</div>","null","html-keyboard-response","82","343379","0.0-6.0-0.38","ANBL","4","f","rechts","21","","fixation","","","",""
"1225","img/L120_180.png","74","image-keyboard-response","83","344604","0.0-6.0-1.38","ANBL","4","f","rechts","21","","","object","j","120","true"
"null","<div style=""font-size:60px;"">+</div>","null","html-keyboard-response","84","344905","0.0-6.0-0.39","ANBL","4","f","rechts","21","","fixation","","","",""
"1371","img/60_150.png","74","image-keyboard-response","85","346277","0.0-6.0-1.39","ANBL","4","f","rechts","21","","","object","j","60","true"
"null","<div style=""font-size:60px;"">+</div>","null","html-keyboard-response","86","346678","0.0-6.0-0.40","ANBL","4","f","rechts","21","","fixation","","","",""
"1314","img/90_180.png","70","image-keyboard-response","87","347993","0.0-6.0-1.40","ANBL","4","f","rechts","21","","","object","f","90","true"
"null","<div style=""font-size:60px;"">+</div>","null","html-keyboard-response","88","348495","0.0-6.0-0.41","ANBL","4","f","rechts","21","","fixation","","","",""
"973","img/60_270.png","70","image-keyboard-response","89","349468","0.0-6.0-1.41","ANBL","4","f","rechts","21","","","object","f","60","true"
"null","<div style=""font-size:60px;"">+</div>","null","html-keyboard-response","90","349819","0.0-6.0-0.42","ANBL","4","f","rechts","21","","fixation","","","",""
"823","img/0_90.png","74","image-keyboard-response","91","350643","0.0-6.0-1.42","ANBL","4","f","rechts","21","","","object","j","0","true"
"null","<div style=""font-size:60px;"">+</div>","null","html-keyboard-response","92","351094","0.0-6.0-0.43","ANBL","4","f","rechts","21","","fixation","","","",""
"963","img/120_270.png","74","image-keyboard-response","93","352058","0.0-6.0-1.43","ANBL","4","f","rechts","21","","","object","j","120","true"
"null","<div style=""font-size:60px;"">+</div>","null","html-keyboard-response","94","352459","0.0-6.0-0.44","ANBL","4","f","rechts","21","","fixation","","","",""
"662","img/0_150.png","74","image-keyboard-response","95","353122","0.0-6.0-1.44","ANBL","4","f","rechts","21","","","object","j","0","true"
"null","<div style=""font-size:60px;"">+</div>","null","html-keyboard-response","96","353474","0.0-6.0-0.45","ANBL","4","f","rechts","21","","fixation","","","",""
"1997","img/150_90.png","70","image-keyboard-response","97","355472","0.0-6.0-1.45","ANBL","4","f","rechts","21","","","object","f","150","true"
"null","<div style=""font-size:60px;"">+</div>","null","html-keyboard-response","98","355974","0.0-6.0-0.46","ANBL","4","f","rechts","21","","fixation","","","",""
"850","img/30_90.png","74","image-keyboard-response","99","356826","0.0-6.0-1.46","ANBL","4","f","rechts","21","","","object","j","30","true"
"null","<div style=""font-size:60px;"">+</div>","null","html-keyboard-response","100","357227","0.0-6.0-0.47","ANBL","4","f","rechts","21","","fixation","","","",""
"943","img/90_330.png","74","image-keyboard-response","101","358172","0.0-6.0-1.47","ANBL","4","f","rechts","21","","","object","j","90","true"
"null","<div style=""font-size:60px;"">+</div>","null","html-keyboard-response","102","358523","0.0-6.0-0.48","ANBL","4","f","rechts","21","","fixation","","","",""
"922","img/120_30.png","70","image-keyboard-response","103","359446","0.0-6.0-1.48","ANBL","4","f","rechts","21","","","object","f","120","true"
"null","<div style=""font-size:60px;"">+</div>","null","html-keyboard-response","104","359748","0.0-6.0-0.49","ANBL","4","f","rechts","21","","fixation","","","",""
"725","img/0_270.png","70","image-keyboard-response","105","360474","0.0-6.0-1.49","ANBL","4","f","rechts","21","","","object","f","0","true"
"null","<div style=""font-size:60px;"">+</div>","null","html-keyboard-response","106","360926","0.0-6.0-0.50","ANBL","4","f","rechts","21","","fixation","","","",""
"927","img/120_330.png","74","image-keyboard-response","107","361855","0.0-6.0-1.50","ANBL","4","f","rechts","21","","","object","j","120","true"
"null","<div style=""font-size:60px;"">+</div>","null","html-keyboard-response","108","362356","0.0-6.0-0.51","ANBL","4","f","rechts","21","","fixation","","","",""
"1134","img/150_180.png","70","image-keyboard-response","109","363491","0.0-6.0-1.51","ANBL","4","f","rechts","21","","","object","f","150","true"
"null","<div style=""font-size:60px;"">+</div>","null","html-keyboard-response","110","363943","0.0-6.0-0.52","ANBL","4","f","rechts","21","","fixation","","","",""
"2296","img/90_120.png","74","image-keyboard-response","111","366239","0.0-6.0-1.52","ANBL","4","f","rechts","21","","","object","j","90","true"
"null","<div style=""font-size:60px;"">+</div>","null","html-keyboard-response","112","366641","0.0-6.0-0.53","ANBL","4","f","rechts","21","","fixation","","","",""
"691","img/0_300.png","70","image-keyboard-response","113","367333","0.0-6.0-1.53","ANBL","4","f","rechts","21","","","object","f","0","true"
"null","<div style=""font-size:60px;"">+</div>","null","html-keyboard-response","114","367685","0.0-6.0-0.54","ANBL","4","f","rechts","21","","fixation","","","",""
"762","img/0_30.png","74","image-keyboard-response","115","368448","0.0-6.0-1.54","ANBL","4","f","rechts","21","","","object","j","0","true"
"null","<div style=""font-size:60px;"">+</div>","null","html-keyboard-response","116","368749","0.0-6.0-0.55","ANBL","4","f","rechts","21","","fixation","","","",""
"1327","img/150_60.png","70","image-keyboard-response","117","370076","0.0-6.0-1.55","ANBL","4","f","rechts","21","","","object","f","150","true"
"null","<div style=""font-size:60px;"">+</div>","null","html-keyboard-response","118","370528","0.0-6.0-0.56","ANBL","4","f","rechts","21","","fixation","","","",""
"1182","img/30_90.png","74","image-keyboard-response","119","371710","0.0-6.0-1.56","ANBL","4","f","rechts","21","","","object","j","30","true"
"null","<div style=""font-size:60px;"">+</div>","null","html-keyboard-response","120","372112","0.0-6.0-0.57","ANBL","4","f","rechts","21","","fixation","","","",""
"1250","img/60_330.png","74","image-keyboard-response","121","373362","0.0-6.0-1.57","ANBL","4","f","rechts","21","","","object","j","60","true"
"null","<div style=""font-size:60px;"">+</div>","null","html-keyboard-response","122","373664","0.0-6.0-0.58","ANBL","4","f","rechts","21","","fixation","","","",""
"1560","img/L30_180.png","74","image-keyboard-response","123","375224","0.0-6.0-1.58","ANBL","4","f","rechts","21","","","object","j","30","true"
"null","<div style=""font-size:60px;"">+</div>","null","html-keyboard-response","124","375675","0.0-6.0-0.59","ANBL","4","f","rechts","21","","fixation","","","",""
"699","img/0_210.png","70","image-keyboard-response","125","376374","0.0-6.0-1.59","ANBL","4","f","rechts","21","","","object","f","0","true"
"null","<div style=""font-size:60px;"">+</div>","null","html-keyboard-response","126","376825","0.0-6.0-0.60","ANBL","4","f","rechts","21","","fixation","","","",""
"1129","img/0_270.png","70","image-keyboard-response","127","377955","0.0-6.0-1.60","ANBL","4","f","rechts","21","","","object","f","0","true"
"null","<div style=""font-size:60px;"">+</div>","null","html-keyboard-response","128","378407","0.0-6.0-0.61","ANBL","4","f","rechts","21","","fixation","","","",""
"1402","img/150_240.png","70","image-keyboard-response","129","379809","0.0-6.0-1.61","ANBL","4","f","rechts","21","","","object","j","150","false"
"null","<div style=""font-size:60px;"">+</div>","null","html-keyboard-response","130","380111","0.0-6.0-0.62","ANBL","4","f","rechts","21","","fixation","","","",""
"1399","img/60_150.png","74","image-keyboard-response","131","381510","0.0-6.0-1.62","ANBL","4","f","rechts","21","","","object","j","60","true"
"null","<div style=""font-size:60px;"">+</div>","null","html-keyboard-response","132","381912","0.0-6.0-0.63","ANBL","4","f","rechts","21","","fixation","","","",""
"1273","img/90_60.png","70","image-keyboard-response","133","383186","0.0-6.0-1.63","ANBL","4","f","rechts","21","","","object","f","90","true"
"null","<div style=""font-size:60px;"">+</div>","null","html-keyboard-response","134","383487","0.0-6.0-0.64","ANBL","4","f","rechts","21","","fixation","","","",""
"811","img/0_330.png","70","image-keyboard-response","135","384300","0.0-6.0-1.64","ANBL","4","f","rechts","21","","","object","f","0","true"
"null","<div style=""font-size:60px;"">+</div>","null","html-keyboard-response","136","384652","0.0-6.0-0.65","ANBL","4","f","rechts","21","","fixation","","","",""
"1196","img/120_330.png","74","image-keyboard-response","137","385849","0.0-6.0-1.65","ANBL","4","f","rechts","21","","","object","j","120","true"
"null","<div style=""font-size:60px;"">+</div>","null","html-keyboard-response","138","386350","0.0-6.0-0.66","ANBL","4","f","rechts","21","","fixation","","","",""
"1138","img/30_60.png","74","image-keyboard-response","139","387489","0.0-6.0-1.66","ANBL","4","f","rechts","21","","","object","j","30","true"
"null","<div style=""font-size:60px;"">+</div>","null","html-keyboard-response","140","387891","0.0-6.0-0.67","ANBL","4","f","rechts","21","","fixation","","","",""
"1074","img/90_30.png","70","image-keyboard-response","141","388966","0.0-6.0-1.67","ANBL","4","f","rechts","21","","","object","f","90","true"
"null","<div style=""font-size:60px;"">+</div>","null","html-keyboard-response","142","389318","0.0-6.0-0.68","ANBL","4","f","rechts","21","","fixation","","","",""
"1085","img/150_90.png","70","image-keyboard-response","143","390403","0.0-6.0-1.68","ANBL","4","f","rechts","21","","","object","f","150","true"
"null","<div style=""font-size:60px;"">+</div>","null","html-keyboard-response","144","390855","0.0-6.0-0.69","ANBL","4","f","rechts","21","","fixation","","","",""
"1124","img/L120_180.png","74","image-keyboard-response","145","391980","0.0-6.0-1.69","ANBL","4","f","rechts","21","","","object","j","120","true"
"null","<div style=""font-size:60px;"">+</div>","null","html-keyboard-response","146","392432","0.0-6.0-0.70","ANBL","4","f","rechts","21","","fixation","","","",""
"1281","img/L90_180.png","74","image-keyboard-response","147","393714","0.0-6.0-1.70","ANBL","4","f","rechts","21","","","object","j","90","true"
"null","<div style=""font-size:60px;"">+</div>","null","html-keyboard-response","148","394116","0.0-6.0-0.71","ANBL","4","f","rechts","21","","fixation","","","",""
"1243","img/90_240.png","70","image-keyboard-response","149","395360","0.0-6.0-1.71","ANBL","4","f","rechts","21","","","object","f","90","true"
"null","<div style=""font-size:60px;"">+</div>","null","html-keyboard-response","150","395711","0.0-6.0-0.72","ANBL","4","f","rechts","21","","fixation","","","",""
"1811","img/L150_180.png","74","image-keyboard-response","151","397522","0.0-6.0-1.72","ANBL","4","f","rechts","21","","","object","j","150","true"
"null","<div style=""font-size:60px;"">+</div>","null","html-keyboard-response","152","397874","0.0-6.0-0.73","ANBL","4","f","rechts","21","","fixation","","","",""
"1374","img/90_330.png","74","image-keyboard-response","153","399249","0.0-6.0-1.73","ANBL","4","f","rechts","21","","","object","j","90","true"
"null","<div style=""font-size:60px;"">+</div>","null","html-keyboard-response","154","399601","0.0-6.0-0.74","ANBL","4","f","rechts","21","","fixation","","","",""
"1610","img/60_90.png","74","image-keyboard-response","155","401212","0.0-6.0-1.74","ANBL","4","f","rechts","21","","","object","j","60","true"
"null","<div style=""font-size:60px;"">+</div>","null","html-keyboard-response","156","401513","0.0-6.0-0.75","ANBL","4","f","rechts","21","","fixation","","","",""
"1072","img/30_240.png","70","image-keyboard-response","157","402585","0.0-6.0-1.75","ANBL","4","f","rechts","21","","","object","f","30","true"
"null","<div style=""font-size:60px;"">+</div>","null","html-keyboard-response","158","402886","0.0-6.0-0.76","ANBL","4","f","rechts","21","","fixation","","","",""
"1444","img/90_150.png","74","image-keyboard-response","159","404331","0.0-6.0-1.76","ANBL","4","f","rechts","21","","","object","j","90","true"
"null","<div style=""font-size:60px;"">+</div>","null","html-keyboard-response","160","404833","0.0-6.0-0.77","ANBL","4","f","rechts","21","","fixation","","","",""
"1899","img/90_300.png","74","image-keyboard-response","161","406732","0.0-6.0-1.77","ANBL","4","f","rechts","21","","","object","j","90","true"
"null","<div style=""font-size:60px;"">+</div>","null","html-keyboard-response","162","407134","0.0-6.0-0.78","ANBL","4","f","rechts","21","","fixation","","","",""
"1311","img/30_270.png","70","image-keyboard-response","163","408445","0.0-6.0-1.78","ANBL","4","f","rechts","21","","","object","f","30","true"
"null","<div style=""font-size:60px;"">+</div>","null","html-keyboard-response","164","408746","0.0-6.0-0.79","ANBL","4","f","rechts","21","","fixation","","","",""
"1352","img/60_210.png","70","image-keyboard-response","165","410099","0.0-6.0-1.79","ANBL","4","f","rechts","21","","","object","f","60","true"
"null","<div style=""font-size:60px;"">+</div>","null","html-keyboard-response","166","410501","0.0-6.0-0.80","ANBL","4","f","rechts","21","","fixation","","","",""
"1672","img/0_90.png","74","image-keyboard-response","167","412173","0.0-6.0-1.80","ANBL","4","f","rechts","21","","","object","j","0","true"
"null","<div style=""font-size:60px;"">+</div>","null","html-keyboard-response","168","412475","0.0-6.0-0.81","ANBL","4","f","rechts","21","","fixation","","","",""
"878","img/30_300.png","70","image-keyboard-response","169","413353","0.0-6.0-1.81","ANBL","4","f","rechts","21","","","object","f","30","true"
"null","<div style=""font-size:60px;"">+</div>","null","html-keyboard-response","170","413704","0.0-6.0-0.82","ANBL","4","f","rechts","21","","fixation","","","",""
"1239","img/150_180.png","70","image-keyboard-response","171","414945","0.0-6.0-1.82","ANBL","4","f","rechts","21","","","object","f","150","true"
"null","<div style=""font-size:60px;"">+</div>","null","html-keyboard-response","172","415446","0.0-6.0-0.83","ANBL","4","f","rechts","21","","fixation","","","",""
"1755","img/120_90.png","74","image-keyboard-response","173","417203","0.0-6.0-1.83","ANBL","4","f","rechts","21","","","object","f","120","false"
"null","<div style=""font-size:60px;"">+</div>","null","html-keyboard-response","174","417654","0.0-6.0-0.84","ANBL","4","f","rechts","21","","fixation","","","",""
"1506","img/90_210.png","70","image-keyboard-response","175","419161","0.0-6.0-1.84","ANBL","4","f","rechts","21","","","object","f","90","true"
"null","<div style=""font-size:60px;"">+</div>","null","html-keyboard-response","176","419563","0.0-6.0-0.85","ANBL","4","f","rechts","21","","fixation","","","",""
"722","img/0_150.png","74","image-keyboard-response","177","420287","0.0-6.0-1.85","ANBL","4","f","rechts","21","","","object","j","0","true"
"null","<div style=""font-size:60px;"">+</div>","null","html-keyboard-response","178","420738","0.0-6.0-0.86","ANBL","4","f","rechts","21","","fixation","","","",""
"945","img/60_30.png","70","image-keyboard-response","179","421684","0.0-6.0-1.86","ANBL","4","f","rechts","21","","","object","f","60","true"
"null","<div style=""font-size:60px;"">+</div>","null","html-keyboard-response","180","422136","0.0-6.0-0.87","ANBL","4","f","rechts","21","","fixation","","","",""
"1569","img/120_210.png","70","image-keyboard-response","181","423706","0.0-6.0-1.87","ANBL","4","f","rechts","21","","","object","f","120","true"
"null","<div style=""font-size:60px;"">+</div>","null","html-keyboard-response","182","424158","0.0-6.0-0.88","ANBL","4","f","rechts","21","","fixation","","","",""
"1080","img/0_120.png","74","image-keyboard-response","183","425239","0.0-6.0-1.88","ANBL","4","f","rechts","21","","","object","j","0","true"
"null","<div style=""font-size:60px;"">+</div>","null","html-keyboard-response","184","425591","0.0-6.0-0.89","ANBL","4","f","rechts","21","","fixation","","","",""
"889","img/120_30.png","70","image-keyboard-response","185","426481","0.0-6.0-1.89","ANBL","4","f","rechts","21","","","object","f","120","true"
"null","<div style=""font-size:60px;"">+</div>","null","html-keyboard-response","186","426983","0.0-6.0-0.90","ANBL","4","f","rechts","21","","fixation","","","",""
"1220","img/30_120.png","74","image-keyboard-response","187","428204","0.0-6.0-1.90","ANBL","4","f","rechts","21","","","object","j","30","true"
"null","<div style=""font-size:60px;"">+</div>","null","html-keyboard-response","188","428506","0.0-6.0-0.91","ANBL","4","f","rechts","21","","fixation","","","",""
"1402","img/60_270.png","70","image-keyboard-response","189","429909","0.0-6.0-1.91","ANBL","4","f","rechts","21","","","object","f","60","true"
"null","<div style=""font-size:60px;"">+</div>","null","html-keyboard-response","190","430361","0.0-6.0-0.92","ANBL","4","f","rechts","21","","fixation","","","",""
"2356","img/120_180.png","70","image-keyboard-response","191","432718","0.0-6.0-1.92","ANBL","4","f","rechts","21","","","object","f","120","true"
"null","<div style=""font-size:60px;"">+</div>","null","html-keyboard-response","192","433070","0.0-6.0-0.93","ANBL","4","f","rechts","21","","fixation","","","",""
"1490","img/30_180.png","70","image-keyboard-response","193","434561","0.0-6.0-1.93","ANBL","4","f","rechts","21","","","object","f","30","true"
"null","<div style=""font-size:60px;"">+</div>","null","html-keyboard-response","194","434862","0.0-6.0-0.94","ANBL","4","f","rechts","21","","fixation","","","",""
"2320","img/150_270.png","74","image-keyboard-response","195","437182","0.0-6.0-1.94","ANBL","4","f","rechts","21","","","object","j","150","true"
"null","<div style=""font-size:60px;"">+</div>","null","html-keyboard-response","196","437484","0.0-6.0-0.95","ANBL","4","f","rechts","21","","fixation","","","",""
"1710","img/120_150.png","74","image-keyboard-response","197","439195","0.0-6.0-1.95","ANBL","4","f","rechts","21","","","object","j","120","true"
"null","<div style=""font-size:60px;"">+</div>","null","html-keyboard-response","198","439546","0.0-6.0-0.96","ANBL","4","f","rechts","21","","fixation","","","",""
"1223","img/L60_180.png","74","image-keyboard-response","199","440770","0.0-6.0-1.96","ANBL","4","f","rechts","21","","","object","j","60","true"
"null","<div style=""font-size:60px;"">+</div>","null","html-keyboard-response","200","441222","0.0-6.0-0.97","ANBL","4","f","rechts","21","","fixation","","","",""
"1908","img/90_180.png","70","image-keyboard-response","201","443130","0.0-6.0-1.97","ANBL","4","f","rechts","21","","","object","f","90","true"
"null","<div style=""font-size:60px;"">+</div>","null","html-keyboard-response","202","443581","0.0-6.0-0.98","ANBL","4","f","rechts","21","","fixation","","","",""
"2087","img/150_300.png","74","image-keyboard-response","203","445669","0.0-6.0-1.98","ANBL","4","f","rechts","21","","","object","j","150","true"
"null","<div style=""font-size:60px;"">+</div>","null","html-keyboard-response","204","446171","0.0-6.0-0.99","ANBL","4","f","rechts","21","","fixation","","","",""
"815","img/0_240.png","70","image-keyboard-response","205","446986","0.0-6.0-1.99","ANBL","4","f","rechts","21","","","object","f","0","true"
"null","<div style=""font-size:60px;"">+</div>","null","html-keyboard-response","206","447388","0.0-6.0-0.100","ANBL","4","f","rechts","21","","fixation","","","",""
"1686","img/150_120.png","74","image-keyboard-response","207","449074","0.0-6.0-1.100","ANBL","4","f","rechts","21","","","object","f","150","false"
"null","<div style=""font-size:60px;"">+</div>","null","html-keyboard-response","208","449526","0.0-6.0-0.101","ANBL","4","f","rechts","21","","fixation","","","",""
"1288","img/60_180.png","70","image-keyboard-response","209","450814","0.0-6.0-1.101","ANBL","4","f","rechts","21","","","object","f","60","true"
"null","<div style=""font-size:60px;"">+</div>","null","html-keyboard-response","210","451265","0.0-6.0-0.102","ANBL","4","f","rechts","21","","fixation","","","",""
"1010","img/0_60.png","74","image-keyboard-response","211","452277","0.0-6.0-1.102","ANBL","4","f","rechts","21","","","object","j","0","true"
"null","<div style=""font-size:60px;"">+</div>","null","html-keyboard-response","212","452578","0.0-6.0-0.103","ANBL","4","f","rechts","21","","fixation","","","",""
"1617","img/120_270.png","70","image-keyboard-response","213","454196","0.0-6.0-1.103","ANBL","4","f","rechts","21","","","object","j","120","false"
"null","<div style=""font-size:60px;"">+</div>","null","html-keyboard-response","214","454497","0.0-6.0-0.104","ANBL","4","f","rechts","21","","fixation","","","",""
"2026","img/L150_180.png","74","image-keyboard-response","215","456525","0.0-6.0-1.104","ANBL","4","f","rechts","21","","","object","j","150","true"
"null","<div style=""font-size:60px;"">+</div>","null","html-keyboard-response","216","456825","0.0-6.0-0.105","ANBL","4","f","rechts","21","","fixation","","","",""
"1322","img/90_330.png","74","image-keyboard-response","217","458148","0.0-6.0-1.105","ANBL","4","f","rechts","21","","","object","j","90","true"
"null","<div style=""font-size:60px;"">+</div>","null","html-keyboard-response","218","458449","0.0-6.0-0.106","ANBL","4","f","rechts","21","","fixation","","","",""
"2232","img/L30_180.png","74","image-keyboard-response","219","460683","0.0-6.0-1.106","ANBL","4","f","rechts","21","","","object","j","30","true"
"null","<div style=""font-size:60px;"">+</div>","null","html-keyboard-response","220","461184","0.0-6.0-0.107","ANBL","4","f","rechts","21","","fixation","","","",""
"1636","img/60_330.png","74","image-keyboard-response","221","462821","0.0-6.0-1.107","ANBL","4","f","rechts","21","","","object","j","60","true"
"null","<div style=""font-size:60px;"">+</div>","null","html-keyboard-response","222","463323","0.0-6.0-0.108","ANBL","4","f","rechts","21","","fixation","","","",""
"2926","img/120_90.png","74","image-keyboard-response","223","466249","0.0-6.0-1.108","ANBL","4","f","rechts","21","","","object","f","120","false"
"null","<div style=""font-size:60px;"">+</div>","null","html-keyboard-response","224","466651","0.0-6.0-0.109","ANBL","4","f","rechts","21","","fixation","","","",""
"699","img/0_30.png","74","image-keyboard-response","225","467351","0.0-6.0-1.109","ANBL","4","f","rechts","21","","","object","j","0","true"
"null","<div style=""font-size:60px;"">+</div>","null","html-keyboard-response","226","467753","0.0-6.0-0.110","ANBL","4","f","rechts","21","","fixation","","","",""
"1185","img/120_30.png","70","image-keyboard-response","227","468938","0.0-6.0-1.110","ANBL","4","f","rechts","21","","","object","f","120","true"
"null","<div style=""font-size:60px;"">+</div>","null","html-keyboard-response","228","469440","0.0-6.0-0.111","ANBL","4","f","rechts","21","","fixation","","","",""
"2178","img/90_180.png","70","image-keyboard-response","229","471618","0.0-6.0-1.111","ANBL","4","f","rechts","21","","","object","f","90","true"
"null","<div style=""font-size:60px;"">+</div>","null","html-keyboard-response","230","471919","0.0-6.0-0.112","ANBL","4","f","rechts","21","","fixation","","","",""
"2059","img/150_60.png","70","image-keyboard-response","231","473979","0.0-6.0-1.112","ANBL","4","f","rechts","21","","","object","f","150","true"
"null","<div style=""font-size:60px;"">+</div>","null","html-keyboard-response","232","474481","0.0-6.0-0.113","ANBL","4","f","rechts","21","","fixation","","","",""
"841","img/0_90.png","74","image-keyboard-response","233","475322","0.0-6.0-1.113","ANBL","4","f","rechts","21","","","object","j","0","true"
"null","<div style=""font-size:60px;"">+</div>","null","html-keyboard-response","234","475774","0.0-6.0-0.114","ANBL","4","f","rechts","21","","fixation","","","",""
"669","img/0_60.png","74","image-keyboard-response","235","476443","0.0-6.0-1.114","ANBL","4","f","rechts","21","","","object","j","0","true"
"null","<div style=""font-size:60px;"">+</div>","null","html-keyboard-response","236","476845","0.0-6.0-0.115","ANBL","4","f","rechts","21","","fixation","","","",""
"1828","img/120_270.png","74","image-keyboard-response","237","478674","0.0-6.0-1.115","ANBL","4","f","rechts","21","","","object","j","120","true"
"null","<div style=""font-size:60px;"">+</div>","null","html-keyboard-response","238","478975","0.0-6.0-0.116","ANBL","4","f","rechts","21","","fixation","","","",""
"1265","img/120_210.png","70","image-keyboard-response","239","480240","0.0-6.0-1.116","ANBL","4","f","rechts","21","","","object","f","120","true"
"null","<div style=""font-size:60px;"">+</div>","null","html-keyboard-response","240","480642","0.0-6.0-0.117","ANBL","4","f","rechts","21","","fixation","","","",""
"1519","img/150_270.png","74","image-keyboard-response","241","482161","0.0-6.0-1.117","ANBL","4","f","rechts","21","","","object","j","150","true"
"null","<div style=""font-size:60px;"">+</div>","null","html-keyboard-response","242","482663","0.0-6.0-0.118","ANBL","4","f","rechts","21","","fixation","","","",""
"754","img/0_120.png","74","image-keyboard-response","243","483417","0.0-6.0-1.118","ANBL","4","f","rechts","21","","","object","j","0","true"
"null","<div style=""font-size:60px;"">+</div>","null","html-keyboard-response","244","483918","0.0-6.0-0.119","ANBL","4","f","rechts","21","","fixation","","","",""
"2892","img/60_150.png","70","image-keyboard-response","245","486811","0.0-6.0-1.119","ANBL","4","f","rechts","21","","","object","j","60","false"
"null","<div style=""font-size:60px;"">+</div>","null","html-keyboard-response","246","487312","0.0-6.0-0.120","ANBL","4","f","rechts","21","","fixation","","","",""
"1530","img/0_300.png","70","image-keyboard-response","247","488844","0.0-6.0-1.120","ANBL","4","f","rechts","21","","","object","f","0","true"
"null","<div style=""font-size:60px;"">+</div>","null","html-keyboard-response","248","489295","0.0-6.0-0.121","ANBL","4","f","rechts","21","","fixation","","","",""
"1269","img/90_150.png","74","image-keyboard-response","249","490566","0.0-6.0-1.121","ANBL","4","f","rechts","21","","","object","j","90","true"
"null","<div style=""font-size:60px;"">+</div>","null","html-keyboard-response","250","490967","0.0-6.0-0.122","ANBL","4","f","rechts","21","","fixation","","","",""
"1265","img/30_240.png","70","image-keyboard-response","251","492234","0.0-6.0-1.122","ANBL","4","f","rechts","21","","","object","f","30","true"
"null","<div style=""font-size:60px;"">+</div>","null","html-keyboard-response","252","492735","0.0-6.0-0.123","ANBL","4","f","rechts","21","","fixation","","","",""
"1270","img/90_210.png","70","image-keyboard-response","253","494007","0.0-6.0-1.123","ANBL","4","f","rechts","21","","","object","f","90","true"
"null","<div style=""font-size:60px;"">+</div>","null","html-keyboard-response","254","494308","0.0-6.0-0.124","ANBL","4","f","rechts","21","","fixation","","","",""
"842","img/30_270.png","70","image-keyboard-response","255","495152","0.0-6.0-1.124","ANBL","4","f","rechts","21","","","object","f","30","true"
"null","<div style=""font-size:60px;"">+</div>","null","html-keyboard-response","256","495503","0.0-6.0-0.125","ANBL","4","f","rechts","21","","fixation","","","",""
"736","img/0_150.png","74","image-keyboard-response","257","496240","0.0-6.0-1.125","ANBL","4","f","rechts","21","","","object","j","0","true"
"null","<div style=""font-size:60px;"">+</div>","null","html-keyboard-response","258","496592","0.0-6.0-0.126","ANBL","4","f","rechts","21","","fixation","","","",""
"1208","img/60_270.png","70","image-keyboard-response","259","497801","0.0-6.0-1.126","ANBL","4","f","rechts","21","","","object","f","60","true"
"null","<div style=""font-size:60px;"">+</div>","null","html-keyboard-response","260","498153","0.0-6.0-0.127","ANBL","4","f","rechts","21","","fixation","","","",""
"786","img/30_120.png","74","image-keyboard-response","261","498941","0.0-6.0-1.127","ANBL","4","f","rechts","21","","","object","j","30","true"
"null","<div style=""font-size:60px;"">+</div>","null","html-keyboard-response","262","499242","0.0-6.0-0.128","ANBL","4","f","rechts","21","","fixation","","","",""
"1085","img/120_330.png","74","image-keyboard-response","263","500328","0.0-6.0-1.128","ANBL","4","f","rechts","21","","","object","j","120","true"
"null","<div style=""font-size:60px;"">+</div>","null","html-keyboard-response","264","500730","0.0-6.0-0.129","ANBL","4","f","rechts","21","","fixation","","","",""
"1167","img/30_90.png","70","image-keyboard-response","265","501897","0.0-6.0-1.129","ANBL","4","f","rechts","21","","","object","j","30","false"
"null","<div style=""font-size:60px;"">+</div>","null","html-keyboard-response","266","502199","0.0-6.0-0.130","ANBL","4","f","rechts","21","","fixation","","","",""
"1989","img/90_240.png","70","image-keyboard-response","267","504189","0.0-6.0-1.130","ANBL","4","f","rechts","21","","","object","f","90","true"
"null","<div style=""font-size:60px;"">+</div>","null","html-keyboard-response","268","504491","0.0-6.0-0.131","ANBL","4","f","rechts","21","","fixation","","","",""
"741","img/0_330.png","70","image-keyboard-response","269","505232","0.0-6.0-1.131","ANBL","4","f","rechts","21","","","object","f","0","true"
"null","<div style=""font-size:60px;"">+</div>","null","html-keyboard-response","270","505584","0.0-6.0-0.132","ANBL","4","f","rechts","21","","fixation","","","",""
"1388","img/90_30.png","70","image-keyboard-response","271","506973","0.0-6.0-1.132","ANBL","4","f","rechts","21","","","object","f","90","true"
"null","<div style=""font-size:60px;"">+</div>","null","html-keyboard-response","272","507425","0.0-6.0-0.133","ANBL","4","f","rechts","21","","fixation","","","",""
"766","img/0_270.png","70","image-keyboard-response","273","508192","0.0-6.0-1.133","ANBL","4","f","rechts","21","","","object","f","0","true"
"null","<div style=""font-size:60px;"">+</div>","null","html-keyboard-response","274","508644","0.0-6.0-0.134","ANBL","4","f","rechts","21","","fixation","","","",""
"2174","img/150_90.png","70","image-keyboard-response","275","510819","0.0-6.0-1.134","ANBL","4","f","rechts","21","","","object","f","150","true"
"null","<div style=""font-size:60px;"">+</div>","null","html-keyboard-response","276","511321","0.0-6.0-0.135","ANBL","4","f","rechts","21","","fixation","","","",""
"1165","img/L90_180.png","74","image-keyboard-response","277","512486","0.0-6.0-1.135","ANBL","4","f","rechts","21","","","object","j","90","true"
"null","<div style=""font-size:60px;"">+</div>","null","html-keyboard-response","278","512886","0.0-6.0-0.136","ANBL","4","f","rechts","21","","fixation","","","",""
"697","img/0_210.png","70","image-keyboard-response","279","513584","0.0-6.0-1.136","ANBL","4","f","rechts","21","","","object","f","0","true"
"null","<div style=""font-size:60px;"">+</div>","null","html-keyboard-response","280","513985","0.0-6.0-0.137","ANBL","4","f","rechts","21","","fixation","","","",""
"1495","img/60_90.png","74","image-keyboard-response","281","515481","0.0-6.0-1.137","ANBL","4","f","rechts","21","","","object","j","60","true"
"null","<div style=""font-size:60px;"">+</div>","null","html-keyboard-response","282","515933","0.0-6.0-0.138","ANBL","4","f","rechts","21","","fixation","","","",""
"1916","img/150_180.png","70","image-keyboard-response","283","517849","0.0-6.0-1.138","ANBL","4","f","rechts","21","","","object","f","150","true"
"null","<div style=""font-size:60px;"">+</div>","null","html-keyboard-response","284","518301","0.0-6.0-0.139","ANBL","4","f","rechts","21","","fixation","","","",""
"1086","img/60_30.png","70","image-keyboard-response","285","519387","0.0-6.0-1.139","ANBL","4","f","rechts","21","","","object","f","60","true"
"null","<div style=""font-size:60px;"">+</div>","null","html-keyboard-response","286","519689","0.0-6.0-0.140","ANBL","4","f","rechts","21","","fixation","","","",""
"1309","img/150_300.png","74","image-keyboard-response","287","520999","0.0-6.0-1.140","ANBL","4","f","rechts","21","","","object","j","150","true"
"null","<div style=""font-size:60px;"">+</div>","null","html-keyboard-response","288","521400","0.0-6.0-0.141","ANBL","4","f","rechts","21","","fixation","","","",""
"1394","img/90_120.png","74","image-keyboard-response","289","522795","0.0-6.0-1.141","ANBL","4","f","rechts","21","","","object","j","90","true"
"null","<div style=""font-size:60px;"">+</div>","null","html-keyboard-response","290","523247","0.0-6.0-0.142","ANBL","4","f","rechts","21","","fixation","","","",""
"1882","img/150_240.png","74","image-keyboard-response","291","525130","0.0-6.0-1.142","ANBL","4","f","rechts","21","","","object","j","150","true"
"null","<div style=""font-size:60px;"">+</div>","null","html-keyboard-response","292","525631","0.0-6.0-0.143","ANBL","4","f","rechts","21","","fixation","","","",""
"1385","img/60_180.png","70","image-keyboard-response","293","527018","0.0-6.0-1.143","ANBL","4","f","rechts","21","","","object","f","60","true"
"null","<div style=""font-size:60px;"">+</div>","null","html-keyboard-response","294","527519","0.0-6.0-0.144","ANBL","4","f","rechts","21","","fixation","","","",""
"1516","img/120_180.png","70","image-keyboard-response","295","529036","0.0-6.0-1.144","ANBL","4","f","rechts","21","","","object","f","120","true"
"null","<div style=""font-size:60px;"">+</div>","null","html-keyboard-response","296","529488","0.0-6.0-0.145","ANBL","4","f","rechts","21","","fixation","","","",""
"1493","img/30_180.png","70","image-keyboard-response","297","530983","0.0-6.0-1.145","ANBL","4","f","rechts","21","","","object","f","30","true"
"null","<div style=""font-size:60px;"">+</div>","null","html-keyboard-response","298","531384","0.0-6.0-0.146","ANBL","4","f","rechts","21","","fixation","","","",""
"1582","img/120_150.png","74","image-keyboard-response","299","532967","0.0-6.0-1.146","ANBL","4","f","rechts","21","","","object","j","120","true"
"null","<div style=""font-size:60px;"">+</div>","null","html-keyboard-response","300","533319","0.0-6.0-0.147","ANBL","4","f","rechts","21","","fixation","","","",""
"1474","img/90_300.png","74","image-keyboard-response","301","534793","0.0-6.0-1.147","ANBL","4","f","rechts","21","","","object","j","90","true"
"null","<div style=""font-size:60px;"">+</div>","null","html-keyboard-response","302","535145","0.0-6.0-0.148","ANBL","4","f","rechts","21","","fixation","","","",""
"1408","img/90_60.png","70","image-keyboard-response","303","536554","0.0-6.0-1.148","ANBL","4","f","rechts","21","","","object","f","90","true"
"null","<div style=""font-size:60px;"">+</div>","null","html-keyboard-response","304","537006","0.0-6.0-0.149","ANBL","4","f","rechts","21","","fixation","","","",""
"2172","img/L120_180.png","74","image-keyboard-response","305","539179","0.0-6.0-1.149","ANBL","4","f","rechts","21","","","object","j","120","true"
"null","<div style=""font-size:60px;"">+</div>","null","html-keyboard-response","306","539581","0.0-6.0-0.150","ANBL","4","f","rechts","21","","fixation","","","",""
"715","img/0_240.png","70","image-keyboard-response","307","540297","0.0-6.0-1.150","ANBL","4","f","rechts","21","","","object","f","0","true"
"null","<div style=""font-size:60px;"">+</div>","null","html-keyboard-response","308","540649","0.0-6.0-0.151","ANBL","4","f","rechts","21","","fixation","","","",""
"1355","img/30_300.png","70","image-keyboard-response","309","542005","0.0-6.0-1.151","ANBL","4","f","rechts","21","","","object","f","30","true"
"null","<div style=""font-size:60px;"">+</div>","null","html-keyboard-response","310","542407","0.0-6.0-0.152","ANBL","4","f","rechts","21","","fixation","","","",""
"1275","img/60_210.png","70","image-keyboard-response","311","543683","0.0-6.0-1.152","ANBL","4","f","rechts","21","","","object","f","60","true"
"null","<div style=""font-size:60px;"">+</div>","null","html-keyboard-response","312","544085","0.0-6.0-0.153","ANBL","4","f","rechts","21","","fixation","","","",""
"1335","img/L60_180.png","74","image-keyboard-response","313","545420","0.0-6.0-1.153","ANBL","4","f","rechts","21","","","object","j","60","true"
"null","<div style=""font-size:60px;"">+</div>","null","html-keyboard-response","314","545872","0.0-6.0-0.154","ANBL","4","f","rechts","21","","fixation","","","",""
"1003","img/30_60.png","74","image-keyboard-response","315","546876","0.0-6.0-1.154","ANBL","4","f","rechts","21","","","object","j","30","true"
"null","<div style=""font-size:60px;"">+</div>","null","html-keyboard-response","316","547377","0.0-6.0-0.155","ANBL","4","f","rechts","21","","fixation","","","",""
"2333","img/150_120.png","74","image-keyboard-response","317","549711","0.0-6.0-1.155","ANBL","4","f","rechts","21","","","object","f","150","false"
"null","<div style=""font-size:60px;"">+</div>","null","html-keyboard-response","318","550013","0.0-6.0-0.156","ANBL","4","f","rechts","21","","fixation","","","",""
"761","img/0_210.png","70","image-keyboard-response","319","550774","0.0-6.0-1.156","ANBL","4","f","rechts","21","","","object","f","0","true"
"null","<div style=""font-size:60px;"">+</div>","null","html-keyboard-response","320","551275","0.0-6.0-0.157","ANBL","4","f","rechts","21","","fixation","","","",""
"1071","img/L150_180.png","74","image-keyboard-response","321","552347","0.0-6.0-1.157","ANBL","4","f","rechts","21","","","object","j","150","true"
"null","<div style=""font-size:60px;"">+</div>","null","html-keyboard-response","322","552749","0.0-6.0-0.158","ANBL","4","f","rechts","21","","fixation","","","",""
"1150","img/60_270.png","70","image-keyboard-response","323","553900","0.0-6.0-1.158","ANBL","4","f","rechts","21","","","object","f","60","true"
"null","<div style=""font-size:60px;"">+</div>","null","html-keyboard-response","324","554301","0.0-6.0-0.159","ANBL","4","f","rechts","21","","fixation","","","",""
"1120","img/60_180.png","70","image-keyboard-response","325","555423","0.0-6.0-1.159","ANBL","4","f","rechts","21","","","object","f","60","true"
"null","<div style=""font-size:60px;"">+</div>","null","html-keyboard-response","326","555724","0.0-6.0-0.160","ANBL","4","f","rechts","21","","fixation","","","",""
"852","img/0_300.png","70","image-keyboard-response","327","556578","0.0-6.0-1.160","ANBL","4","f","rechts","21","","","object","f","0","true"
"null","<div style=""font-size:60px;"">+</div>","null","html-keyboard-response","328","557079","0.0-6.0-0.161","ANBL","4","f","rechts","21","","fixation","","","",""
"613","img/0_240.png","70","image-keyboard-response","329","557693","0.0-6.0-1.161","ANBL","4","f","rechts","21","","","object","f","0","true"
"null","<div style=""font-size:60px;"">+</div>","null","html-keyboard-response","330","558195","0.0-6.0-0.162","ANBL","4","f","rechts","21","","fixation","","","",""
"1325","img/90_180.png","70","image-keyboard-response","331","559521","0.0-6.0-1.162","ANBL","4","f","rechts","21","","","object","f","90","true"
"null","<div style=""font-size:60px;"">+</div>","null","html-keyboard-response","332","559872","0.0-6.0-0.163","ANBL","4","f","rechts","21","","fixation","","","",""
"1209","img/90_300.png","70","image-keyboard-response","333","561082","0.0-6.0-1.163","ANBL","4","f","rechts","21","","","object","j","90","false"
"null","<div style=""font-size:60px;"">+</div>","null","html-keyboard-response","334","561434","0.0-6.0-0.164","ANBL","4","f","rechts","21","","fixation","","","",""
"881","img/30_60.png","74","image-keyboard-response","335","562316","0.0-6.0-1.164","ANBL","4","f","rechts","21","","","object","j","30","true"
"null","<div style=""font-size:60px;"">+</div>","null","html-keyboard-response","336","562618","0.0-6.0-0.165","ANBL","4","f","rechts","21","","fixation","","","",""
"1907","img/L120_180.png","74","image-keyboard-response","337","564526","0.0-6.0-1.165","ANBL","4","f","rechts","21","","","object","j","120","true"
"null","<div style=""font-size:60px;"">+</div>","null","html-keyboard-response","338","564928","0.0-6.0-0.166","ANBL","4","f","rechts","21","","fixation","","","",""
"2547","img/90_330.png","74","image-keyboard-response","339","567476","0.0-6.0-1.166","ANBL","4","f","rechts","21","","","object","j","90","true"
"null","<div style=""font-size:60px;"">+</div>","null","html-keyboard-response","340","567878","0.0-6.0-0.167","ANBL","4","f","rechts","21","","fixation","","","",""
"1813","img/120_90.png","74","image-keyboard-response","341","569692","0.0-6.0-1.167","ANBL","4","f","rechts","21","","","object","f","120","false"
"null","<div style=""font-size:60px;"">+</div>","null","html-keyboard-response","342","570194","0.0-6.0-0.168","ANBL","4","f","rechts","21","","fixation","","","",""
"1695","img/120_270.png","70","image-keyboard-response","343","571889","0.0-6.0-1.168","ANBL","4","f","rechts","21","","","object","j","120","false"
"null","<div style=""font-size:60px;"">+</div>","null","html-keyboard-response","344","572291","0.0-6.0-0.169","ANBL","4","f","rechts","21","","fixation","","","",""
"625","img/0_330.png","70","image-keyboard-response","345","572917","0.0-6.0-1.169","ANBL","4","f","rechts","21","","","object","f","0","true"
"null","<div style=""font-size:60px;"">+</div>","null","html-keyboard-response","346","573419","0.0-6.0-0.170","ANBL","4","f","rechts","21","","fixation","","","",""
"616","img/0_30.png","74","image-keyboard-response","347","574036","0.0-6.0-1.170","ANBL","4","f","rechts","21","","","object","j","0","true"
"null","<div style=""font-size:60px;"">+</div>","null","html-keyboard-response","348","574438","0.0-6.0-0.171","ANBL","4","f","rechts","21","","fixation","","","",""
"1510","img/150_300.png","74","image-keyboard-response","349","575948","0.0-6.0-1.171","ANBL","4","f","rechts","21","","","object","j","150","true"
"null","<div style=""font-size:60px;"">+</div>","null","html-keyboard-response","350","576450","0.0-6.0-0.172","ANBL","4","f","rechts","21","","fixation","","","",""
"1070","img/120_180.png","70","image-keyboard-response","351","577520","0.0-6.0-1.172","ANBL","4","f","rechts","21","","","object","f","120","true"
"null","<div style=""font-size:60px;"">+</div>","null","html-keyboard-response","352","577871","0.0-6.0-0.173","ANBL","4","f","rechts","21","","fixation","","","",""
"1332","img/60_90.png","74","image-keyboard-response","353","579204","0.0-6.0-1.173","ANBL","4","f","rechts","21","","","object","j","60","true"
"null","<div style=""font-size:60px;"">+</div>","null","html-keyboard-response","354","579706","0.0-6.0-0.174","ANBL","4","f","rechts","21","","fixation","","","",""
"1345","img/60_330.png","74","image-keyboard-response","355","581051","0.0-6.0-1.174","ANBL","4","f","rechts","21","","","object","j","60","true"
"null","<div style=""font-size:60px;"">+</div>","null","html-keyboard-response","356","581502","0.0-6.0-0.175","ANBL","4","f","rechts","21","","fixation","","","",""
"914","img/120_330.png","74","image-keyboard-response","357","582417","0.0-6.0-1.175","ANBL","4","f","rechts","21","","","object","j","120","true"
"null","<div style=""font-size:60px;"">+</div>","null","html-keyboard-response","358","582769","0.0-6.0-0.176","ANBL","4","f","rechts","21","","fixation","","","",""
"792","img/90_30.png","70","image-keyboard-response","359","583561","0.0-6.0-1.176","ANBL","4","f","rechts","21","","","object","f","90","true"
"null","<div style=""font-size:60px;"">+</div>","null","html-keyboard-response","360","584063","0.0-6.0-0.177","ANBL","4","f","rechts","21","","fixation","","","",""
"876","img/30_240.png","70","image-keyboard-response","361","584939","0.0-6.0-1.177","ANBL","4","f","rechts","21","","","object","f","30","true"
"null","<div style=""font-size:60px;"">+</div>","null","html-keyboard-response","362","585441","0.0-6.0-0.178","ANBL","4","f","rechts","21","","fixation","","","",""
"1078","img/150_120.png","74","image-keyboard-response","363","586520","0.0-6.0-1.178","ANBL","4","f","rechts","21","","","object","f","150","false"
"null","<div style=""font-size:60px;"">+</div>","null","html-keyboard-response","364","586821","0.0-6.0-0.179","ANBL","4","f","rechts","21","","fixation","","","",""
"844","img/60_30.png","70","image-keyboard-response","365","587666","0.0-6.0-1.179","ANBL","4","f","rechts","21","","","object","f","60","true"
"null","<div style=""font-size:60px;"">+</div>","null","html-keyboard-response","366","588017","0.0-6.0-0.180","ANBL","4","f","rechts","21","","fixation","","","",""
"1095","img/150_270.png","74","image-keyboard-response","367","589114","0.0-6.0-1.180","ANBL","4","f","rechts","21","","","object","j","150","true"
"null","<div style=""font-size:60px;"">+</div>","null","html-keyboard-response","368","589564","0.0-6.0-0.181","ANBL","4","f","rechts","21","","fixation","","","",""
"998","img/30_180.png","70","image-keyboard-response","369","590563","0.0-6.0-1.181","ANBL","4","f","rechts","21","","","object","f","30","true"
"null","<div style=""font-size:60px;"">+</div>","null","html-keyboard-response","370","590915","0.0-6.0-0.182","ANBL","4","f","rechts","21","","fixation","","","",""
"1360","img/150_60.png","74","image-keyboard-response","371","592275","0.0-6.0-1.182","ANBL","4","f","rechts","21","","","object","f","150","false"
"null","<div style=""font-size:60px;"">+</div>","null","html-keyboard-response","372","592627","0.0-6.0-0.183","ANBL","4","f","rechts","21","","fixation","","","",""
"1947","img/90_150.png","74","image-keyboard-response","373","594576","0.0-6.0-1.183","ANBL","4","f","rechts","21","","","object","j","90","true"
"null","<div style=""font-size:60px;"">+</div>","null","html-keyboard-response","374","594877","0.0-6.0-0.184","ANBL","4","f","rechts","21","","fixation","","","",""
"951","img/30_270.png","70","image-keyboard-response","375","595829","0.0-6.0-1.184","ANBL","4","f","rechts","21","","","object","f","30","true"
"null","<div style=""font-size:60px;"">+</div>","null","html-keyboard-response","376","596281","0.0-6.0-0.185","ANBL","4","f","rechts","21","","fixation","","","",""
"1279","img/90_240.png","70","image-keyboard-response","377","597560","0.0-6.0-1.185","ANBL","4","f","rechts","21","","","object","f","90","true"
"null","<div style=""font-size:60px;"">+</div>","null","html-keyboard-response","378","598062","0.0-6.0-0.186","ANBL","4","f","rechts","21","","fixation","","","",""
"1721","img/150_180.png","70","image-keyboard-response","379","599784","0.0-6.0-1.186","ANBL","4","f","rechts","21","","","object","f","150","true"
"null","<div style=""font-size:60px;"">+</div>","null","html-keyboard-response","380","600286","0.0-6.0-0.187","ANBL","4","f","rechts","21","","fixation","","","",""
"1170","img/L60_180.png","74","image-keyboard-response","381","601457","0.0-6.0-1.187","ANBL","4","f","rechts","21","","","object","j","60","true"
"null","<div style=""font-size:60px;"">+</div>","null","html-keyboard-response","382","601859","0.0-6.0-0.188","ANBL","4","f","rechts","21","","fixation","","","",""
"1418","img/90_60.png","70","image-keyboard-response","383","603278","0.0-6.0-1.188","ANBL","4","f","rechts","21","","","object","f","90","true"
"null","<div style=""font-size:60px;"">+</div>","null","html-keyboard-response","384","603630","0.0-6.0-0.189","ANBL","4","f","rechts","21","","fixation","","","",""
"1320","img/30_300.png","70","image-keyboard-response","385","604951","0.0-6.0-1.189","ANBL","4","f","rechts","21","","","object","f","30","true"
"null","<div style=""font-size:60px;"">+</div>","null","html-keyboard-response","386","605403","0.0-6.0-0.190","ANBL","4","f","rechts","21","","fixation","","","",""
"2030","img/30_120.png","74","image-keyboard-response","387","607434","0.0-6.0-1.190","ANBL","4","f","rechts","21","","","object","j","30","true"
"null","<div style=""font-size:60px;"">+</div>","null","html-keyboard-response","388","607786","0.0-6.0-0.191","ANBL","4","f","rechts","21","","fixation","","","",""
"1078","img/120_210.png","70","image-keyboard-response","389","608864","0.0-6.0-1.191","ANBL","4","f","rechts","21","","","object","f","120","true"
"null","<div style=""font-size:60px;"">+</div>","null","html-keyboard-response","390","609166","0.0-6.0-0.192","ANBL","4","f","rechts","21","","fixation","","","",""
"1071","img/150_240.png","70","image-keyboard-response","391","610238","0.0-6.0-1.192","ANBL","4","f","rechts","21","","","object","j","150","false"
"null","<div style=""font-size:60px;"">+</div>","null","html-keyboard-response","392","610640","0.0-6.0-0.193","ANBL","4","f","rechts","21","","fixation","","","",""
"1454","img/L90_180.png","74","image-keyboard-response","393","612095","0.0-6.0-1.193","ANBL","4","f","rechts","21","","","object","j","90","true"
"null","<div style=""font-size:60px;"">+</div>","null","html-keyboard-response","394","612396","0.0-6.0-0.194","ANBL","4","f","rechts","21","","fixation","","","",""
"830","img/120_150.png","74","image-keyboard-response","395","613227","0.0-6.0-1.194","ANBL","4","f","rechts","21","","","object","j","120","true"
"null","<div style=""font-size:60px;"">+</div>","null","html-keyboard-response","396","613528","0.0-6.0-0.195","ANBL","4","f","rechts","21","","fixation","","","",""
"1250","img/60_210.png","70","image-keyboard-response","397","614779","0.0-6.0-1.195","ANBL","4","f","rechts","21","","","object","f","60","true"
"null","<div style=""font-size:60px;"">+</div>","null","html-keyboard-response","398","615281","0.0-6.0-0.196","ANBL","4","f","rechts","21","","fixation","","","",""
"1725","img/30_90.png","74","image-keyboard-response","399","617006","0.0-6.0-1.196","ANBL","4","f","rechts","21","","","object","j","30","true"
"null","<div style=""font-size:60px;"">+</div>","null","html-keyboard-response","400","617458","0.0-6.0-0.197","ANBL","4","f","rechts","21","","fixation","","","",""
"1637","img/60_150.png","74","image-keyboard-response","401","619095","0.0-6.0-1.197","ANBL","4","f","rechts","21","","","object","j","60","true"
"null","<div style=""font-size:60px;"">+</div>","null","html-keyboard-response","402","619497","0.0-6.0-0.198","ANBL","4","f","rechts","21","","fixation","","","",""
"872","img/90_210.png","70","image-keyboard-response","403","620369","0.0-6.0-1.198","ANBL","4","f","rechts","21","","","object","f","90","true"
"null","<div style=""font-size:60px;"">+</div>","null","html-keyboard-response","404","620820","0.0-6.0-0.199","ANBL","4","f","rechts","21","","fixation","","","",""
"748","img/0_90.png","74","image-keyboard-response","405","621569","0.0-6.0-1.199","ANBL","4","f","rechts","21","","","object","j","0","true"
"null","<div style=""font-size:60px;"">+</div>","null","html-keyboard-response","406","621921","0.0-6.0-0.200","ANBL","4","f","rechts","21","","fixation","","","",""
"629","img/0_270.png","70","image-keyboard-response","407","622550","0.0-6.0-1.200","ANBL","4","f","rechts","21","","","object","f","0","true"
"null","<div style=""font-size:60px;"">+</div>","null","html-keyboard-response","408","622902","0.0-6.0-0.201","ANBL","4","f","rechts","21","","fixation","","","",""
"843","img/120_30.png","70","image-keyboard-response","409","623745","0.0-6.0-1.201","ANBL","4","f","rechts","21","","","object","f","120","true"
"null","<div style=""font-size:60px;"">+</div>","null","html-keyboard-response","410","624096","0.0-6.0-0.202","ANBL","4","f","rechts","21","","fixation","","","",""
"753","img/150_90.png","70","image-keyboard-response","411","624851","0.0-6.0-1.202","ANBL","4","f","rechts","21","","","object","f","150","true"
"null","<div style=""font-size:60px;"">+</div>","null","html-keyboard-response","412","625302","0.0-6.0-0.203","ANBL","4","f","rechts","21","","fixation","","","",""
"1140","img/90_120.png","74","image-keyboard-response","413","626444","0.0-6.0-1.203","ANBL","4","f","rechts","21","","","object","j","90","true"
"null","<div style=""font-size:60px;"">+</div>","null","html-keyboard-response","414","626745","0.0-6.0-0.204","ANBL","4","f","rechts","21","","fixation","","","",""
"694","img/0_150.png","74","image-keyboard-response","415","627441","0.0-6.0-1.204","ANBL","4","f","rechts","21","","","object","j","0","true"
"null","<div style=""font-size:60px;"">+</div>","null","html-keyboard-response","416","627892","0.0-6.0-0.205","ANBL","4","f","rechts","21","","fixation","","","",""
"1529","img/L30_180.png","74","image-keyboard-response","417","629422","0.0-6.0-1.205","ANBL","4","f","rechts","21","","","object","j","30","true"
"null","<div style=""font-size:60px;"">+</div>","null","html-keyboard-response","418","629874","0.0-6.0-0.206","ANBL","4","f","rechts","21","","fixation","","","",""
"787","img/0_120.png","74","image-keyboard-response","419","630663","0.0-6.0-1.206","ANBL","4","f","rechts","21","","","object","j","0","true"
"null","<div style=""font-size:60px;"">+</div>","null","html-keyboard-response","420","631114","0.0-6.0-0.207","ANBL","4","f","rechts","21","","fixation","","","",""
"584","img/0_60.png","74","image-keyboard-response","421","631699","0.0-6.0-1.207","ANBL","4","f","rechts","21","","","object","j","0","true"
"9449","<p>Du hast in 91% der Versuche korrekt entschieden.</p><p>Deine durchschnittliche Reaktionszeit war  1291ms.</p><p>Dr&uuml;cke eine beliebige Taste, um die Session zu beenden. Vielen Dank!</p>","74","html-keyboard-response","422","641149","0.0-7.0","ANBL","4","f","rechts","21","","","","","",""
