"rt","stimulus","key_press","trial_type","trial_index","time_elapsed","internal_node_id","subject","session","sex","handedness","age","responses","test_part","condition","correct_response","angle","correct"
"2784","<p>Mental Rotation Experiment.</p> <p>Dr&uuml;cke eine beliebige Taste, um anzufangen.</p>","70","html-keyboard-response","0","2788","0.0-0.0","ANBL","1","f","rechts","21","","","","","",""
"2966","","","survey-text","1","5755","0.0-1.0","ANBL","1","f","rechts","21","{""Q0"":""ANBL""}","","","","",""
"2021","","","survey-text","2","7778","0.0-2.0","ANBL","1","f","rechts","21","{""Q0"":""1""}","","","","",""
"4671","","","survey-multi-choice","3","12452","0.0-3.0","ANBL","1","f","rechts","21","{""Q0"":""f"",""Q1"":""rechts""}","","","","",""
"5713","","","survey-text","4","18166","0.0-4.0","ANBL","1","f","rechts","21","{""Q0"":""21""}","","","","",""
"110921","<p>Stell dir vor, dass du vor einem runden Tisch stehst, auf dem sich ein blauer Ball am Tischrand befindet. Entlang des Tischrands ist jeweils ein verschieden langer Pfeil. Nun bleibst du an deinem Platz vor dem Tisch und rotierst den Tisch entlang des Pfeils (gleiche Richtung und Länge). </p> <img src='img/30_180.png'></img> <br><p> Nachdem du diese (vorgestellte) Rotation durchgef&uuml;hrt hast, schau in Richtung der Tischmitte, und entscheide dann, ob der Ball links oder rechts von dir liegt.</p> <p>Dr&uuml;cke die <strong>'f'</strong>-Taste f&uuml;r links, die <strong>'j'</strong>-Taste f&uuml;r rechts.</p><br><p> Das Bild wird jeweils 1 Sekunde lang pr&auml;sentiert. Du hast 3 Sekunden Zeit eine Entscheidung zu treffen.</p>","74","html-keyboard-response","5","129088","0.0-5.0","ANBL","1","f","rechts","21","","","","","",""
"null","<div style=""font-size:60px;"">+</div>","null","html-keyboard-response","6","130492","0.0-6.0-0.0","ANBL","1","f","rechts","21","","fixation","","","",""
"1549","img/L120_180.png","70","image-keyboard-response","7","132044","0.0-6.0-1.0","ANBL","1","f","rechts","21","","","object","j","120","false"
"null","<div style=""font-size:60px;"">+</div>","null","html-keyboard-response","8","132545","0.0-6.0-0.1","ANBL","1","f","rechts","21","","fixation","","","",""
"1220","img/150_270.png","74","image-keyboard-response","9","133766","0.0-6.0-1.1","ANBL","1","f","rechts","21","","","object","j","150","true"
"null","<div style=""font-size:60px;"">+</div>","null","html-keyboard-response","10","134268","0.0-6.0-0.2","ANBL","1","f","rechts","21","","fixation","","","",""
"817","img/120_270.png","74","image-keyboard-response","11","135086","0.0-6.0-1.2","ANBL","1","f","rechts","21","","","object","j","120","true"
"null","<div style=""font-size:60px;"">+</div>","null","html-keyboard-response","12","135538","0.0-6.0-0.3","ANBL","1","f","rechts","21","","fixation","","","",""
"1247","img/60_30.png","70","image-keyboard-response","13","136786","0.0-6.0-1.3","ANBL","1","f","rechts","21","","","object","f","60","true"
"null","<div style=""font-size:60px;"">+</div>","null","html-keyboard-response","14","137287","0.0-6.0-0.4","ANBL","1","f","rechts","21","","fixation","","","",""
"804","img/90_330.png","74","image-keyboard-response","15","138093","0.0-6.0-1.4","ANBL","1","f","rechts","21","","","object","j","90","true"
"null","<div style=""font-size:60px;"">+</div>","null","html-keyboard-response","16","138593","0.0-6.0-0.5","ANBL","1","f","rechts","21","","fixation","","","",""
"1306","img/150_300.png","74","image-keyboard-response","17","139901","0.0-6.0-1.5","ANBL","1","f","rechts","21","","","object","j","150","true"
"null","<div style=""font-size:60px;"">+</div>","null","html-keyboard-response","18","140302","0.0-6.0-0.6","ANBL","1","f","rechts","21","","fixation","","","",""
"901","img/120_90.png","70","image-keyboard-response","19","141205","0.0-6.0-1.6","ANBL","1","f","rechts","21","","","object","f","120","true"
"null","<div style=""font-size:60px;"">+</div>","null","html-keyboard-response","20","141606","0.0-6.0-0.7","ANBL","1","f","rechts","21","","fixation","","","",""
"1103","img/90_60.png","70","image-keyboard-response","21","142710","0.0-6.0-1.7","ANBL","1","f","rechts","21","","","object","f","90","true"
"null","<div style=""font-size:60px;"">+</div>","null","html-keyboard-response","22","143062","0.0-6.0-0.8","ANBL","1","f","rechts","21","","fixation","","","",""
"1316","img/120_150.png","70","image-keyboard-response","23","144379","0.0-6.0-1.8","ANBL","1","f","rechts","21","","","object","j","120","false"
"null","<div style=""font-size:60px;"">+</div>","null","html-keyboard-response","24","144731","0.0-6.0-0.9","ANBL","1","f","rechts","21","","fixation","","","",""
"1241","img/0_240.png","74","image-keyboard-response","25","145973","0.0-6.0-1.9","ANBL","1","f","rechts","21","","","object","f","0","false"
"null","<div style=""font-size:60px;"">+</div>","null","html-keyboard-response","26","146325","0.0-6.0-0.10","ANBL","1","f","rechts","21","","fixation","","","",""
"1349","img/60_270.png","74","image-keyboard-response","27","147675","0.0-6.0-1.10","ANBL","1","f","rechts","21","","","object","f","60","false"
"null","<div style=""font-size:60px;"">+</div>","null","html-keyboard-response","28","148177","0.0-6.0-0.11","ANBL","1","f","rechts","21","","fixation","","","",""
"1658","img/L150_180.png","70","image-keyboard-response","29","149836","0.0-6.0-1.11","ANBL","1","f","rechts","21","","","object","j","150","false"
"null","<div style=""font-size:60px;"">+</div>","null","html-keyboard-response","30","150337","0.0-6.0-0.12","ANBL","1","f","rechts","21","","fixation","","","",""
"1078","img/0_300.png","70","image-keyboard-response","31","151417","0.0-6.0-1.12","ANBL","1","f","rechts","21","","","object","f","0","true"
"null","<div style=""font-size:60px;"">+</div>","null","html-keyboard-response","32","151768","0.0-6.0-0.13","ANBL","1","f","rechts","21","","fixation","","","",""
"1768","img/30_270.png","70","image-keyboard-response","33","153537","0.0-6.0-1.13","ANBL","1","f","rechts","21","","","object","f","30","true"
"null","<div style=""font-size:60px;"">+</div>","null","html-keyboard-response","34","154039","0.0-6.0-0.14","ANBL","1","f","rechts","21","","fixation","","","",""
"2238","img/30_240.png","70","image-keyboard-response","35","156279","0.0-6.0-1.14","ANBL","1","f","rechts","21","","","object","f","30","true"
"null","<div style=""font-size:60px;"">+</div>","null","html-keyboard-response","36","156780","0.0-6.0-0.15","ANBL","1","f","rechts","21","","fixation","","","",""
"2249","img/L60_180.png","70","image-keyboard-response","37","159030","0.0-6.0-1.15","ANBL","1","f","rechts","21","","","object","j","60","false"
"null","<div style=""font-size:60px;"">+</div>","null","html-keyboard-response","38","159481","0.0-6.0-0.16","ANBL","1","f","rechts","21","","fixation","","","",""
"1320","img/0_30.png","74","image-keyboard-response","39","160804","0.0-6.0-1.16","ANBL","1","f","rechts","21","","","object","j","0","true"
"null","<div style=""font-size:60px;"">+</div>","null","html-keyboard-response","40","161155","0.0-6.0-0.17","ANBL","1","f","rechts","21","","fixation","","","",""
"1517","img/30_60.png","70","image-keyboard-response","41","162674","0.0-6.0-1.17","ANBL","1","f","rechts","21","","","object","j","30","false"
"null","<div style=""font-size:60px;"">+</div>","null","html-keyboard-response","42","163026","0.0-6.0-0.18","ANBL","1","f","rechts","21","","fixation","","","",""
"null","img/0_60.png","null","image-keyboard-response","43","166029","0.0-6.0-1.18","ANBL","1","f","rechts","21","","","object","j","0","false"
"null","<div style=""font-size:60px;"">+</div>","null","html-keyboard-response","44","166530","0.0-6.0-0.19","ANBL","1","f","rechts","21","","fixation","","","",""
"1418","img/120_210.png","74","image-keyboard-response","45","167950","0.0-6.0-1.19","ANBL","1","f","rechts","21","","","object","f","120","false"
"null","<div style=""font-size:60px;"">+</div>","null","html-keyboard-response","46","168351","0.0-6.0-0.20","ANBL","1","f","rechts","21","","fixation","","","",""
"2093","img/120_180.png","70","image-keyboard-response","47","170445","0.0-6.0-1.20","ANBL","1","f","rechts","21","","","object","f","120","true"
"null","<div style=""font-size:60px;"">+</div>","null","html-keyboard-response","48","170947","0.0-6.0-0.21","ANBL","1","f","rechts","21","","fixation","","","",""
"1256","img/0_270.png","70","image-keyboard-response","49","172205","0.0-6.0-1.21","ANBL","1","f","rechts","21","","","object","f","0","true"
"null","<div style=""font-size:60px;"">+</div>","null","html-keyboard-response","50","172657","0.0-6.0-0.22","ANBL","1","f","rechts","21","","fixation","","","",""
"2598","img/150_180.png","70","image-keyboard-response","51","175256","0.0-6.0-1.22","ANBL","1","f","rechts","21","","","object","f","150","true"
"null","<div style=""font-size:60px;"">+</div>","null","html-keyboard-response","52","175708","0.0-6.0-0.23","ANBL","1","f","rechts","21","","fixation","","","",""
"1336","img/90_150.png","74","image-keyboard-response","53","177045","0.0-6.0-1.23","ANBL","1","f","rechts","21","","","object","j","90","true"
"null","<div style=""font-size:60px;"">+</div>","null","html-keyboard-response","54","177497","0.0-6.0-0.24","ANBL","1","f","rechts","21","","fixation","","","",""
"2284","img/150_60.png","70","image-keyboard-response","55","179782","0.0-6.0-1.24","ANBL","1","f","rechts","21","","","object","f","150","true"
"null","<div style=""font-size:60px;"">+</div>","null","html-keyboard-response","56","180234","0.0-6.0-0.25","ANBL","1","f","rechts","21","","fixation","","","",""
"1983","img/90_240.png","70","image-keyboard-response","57","182219","0.0-6.0-1.25","ANBL","1","f","rechts","21","","","object","f","90","true"
"null","<div style=""font-size:60px;"">+</div>","null","html-keyboard-response","58","182520","0.0-6.0-0.26","ANBL","1","f","rechts","21","","fixation","","","",""
"1815","img/90_180.png","70","image-keyboard-response","59","184336","0.0-6.0-1.26","ANBL","1","f","rechts","21","","","object","f","90","true"
"null","<div style=""font-size:60px;"">+</div>","null","html-keyboard-response","60","184838","0.0-6.0-0.27","ANBL","1","f","rechts","21","","fixation","","","",""
"2144","img/120_30.png","70","image-keyboard-response","61","186983","0.0-6.0-1.27","ANBL","1","f","rechts","21","","","object","f","120","true"
"null","<div style=""font-size:60px;"">+</div>","null","html-keyboard-response","62","187485","0.0-6.0-0.28","ANBL","1","f","rechts","21","","fixation","","","",""
"1765","img/30_300.png","70","image-keyboard-response","63","189251","0.0-6.0-1.28","ANBL","1","f","rechts","21","","","object","f","30","true"
"null","<div style=""font-size:60px;"">+</div>","null","html-keyboard-response","64","189753","0.0-6.0-0.29","ANBL","1","f","rechts","21","","fixation","","","",""
"1276","img/0_210.png","70","image-keyboard-response","65","191030","0.0-6.0-1.29","ANBL","1","f","rechts","21","","","object","f","0","true"
"null","<div style=""font-size:60px;"">+</div>","null","html-keyboard-response","66","191432","0.0-6.0-0.30","ANBL","1","f","rechts","21","","fixation","","","",""
"2012","img/120_330.png","74","image-keyboard-response","67","193445","0.0-6.0-1.30","ANBL","1","f","rechts","21","","","object","j","120","true"
"null","<div style=""font-size:60px;"">+</div>","null","html-keyboard-response","68","193797","0.0-6.0-0.31","ANBL","1","f","rechts","21","","fixation","","","",""
"1759","img/150_120.png","70","image-keyboard-response","69","195558","0.0-6.0-1.31","ANBL","1","f","rechts","21","","","object","f","150","true"
"null","<div style=""font-size:60px;"">+</div>","null","html-keyboard-response","70","196059","0.0-6.0-0.32","ANBL","1","f","rechts","21","","fixation","","","",""
"1732","img/0_90.png","74","image-keyboard-response","71","197792","0.0-6.0-1.32","ANBL","1","f","rechts","21","","","object","j","0","true"
"null","<div style=""font-size:60px;"">+</div>","null","html-keyboard-response","72","198244","0.0-6.0-0.33","ANBL","1","f","rechts","21","","fixation","","","",""
"2031","img/90_120.png","74","image-keyboard-response","73","200276","0.0-6.0-1.33","ANBL","1","f","rechts","21","","","object","j","90","true"
"null","<div style=""font-size:60px;"">+</div>","null","html-keyboard-response","74","200777","0.0-6.0-0.34","ANBL","1","f","rechts","21","","fixation","","","",""
"2030","img/150_240.png","74","image-keyboard-response","75","202809","0.0-6.0-1.34","ANBL","1","f","rechts","21","","","object","j","150","true"
"null","<div style=""font-size:60px;"">+</div>","null","html-keyboard-response","76","203260","0.0-6.0-0.35","ANBL","1","f","rechts","21","","fixation","","","",""
"1783","img/60_90.png","70","image-keyboard-response","77","205045","0.0-6.0-1.35","ANBL","1","f","rechts","21","","","object","j","60","false"
"null","<div style=""font-size:60px;"">+</div>","null","html-keyboard-response","78","205447","0.0-6.0-0.36","ANBL","1","f","rechts","21","","fixation","","","",""
"1740","img/L90_180.png","70","image-keyboard-response","79","207188","0.0-6.0-1.36","ANBL","1","f","rechts","21","","","object","j","90","false"
"null","<div style=""font-size:60px;"">+</div>","null","html-keyboard-response","80","207689","0.0-6.0-0.37","ANBL","1","f","rechts","21","","fixation","","","",""
"1095","img/0_150.png","74","image-keyboard-response","81","208785","0.0-6.0-1.37","ANBL","1","f","rechts","21","","","object","j","0","true"
"null","<div style=""font-size:60px;"">+</div>","null","html-keyboard-response","82","209187","0.0-6.0-0.38","ANBL","1","f","rechts","21","","fixation","","","",""
"1171","img/30_120.png","74","image-keyboard-response","83","210359","0.0-6.0-1.38","ANBL","1","f","rechts","21","","","object","j","30","true"
"null","<div style=""font-size:60px;"">+</div>","null","html-keyboard-response","84","210761","0.0-6.0-0.39","ANBL","1","f","rechts","21","","fixation","","","",""
"1794","img/90_300.png","74","image-keyboard-response","85","212556","0.0-6.0-1.39","ANBL","1","f","rechts","21","","","object","j","90","true"
"null","<div style=""font-size:60px;"">+</div>","null","html-keyboard-response","86","212957","0.0-6.0-0.40","ANBL","1","f","rechts","21","","fixation","","","",""
"1327","img/30_90.png","74","image-keyboard-response","87","214284","0.0-6.0-1.40","ANBL","1","f","rechts","21","","","object","j","30","true"
"null","<div style=""font-size:60px;"">+</div>","null","html-keyboard-response","88","214686","0.0-6.0-0.41","ANBL","1","f","rechts","21","","fixation","","","",""
"1626","img/60_180.png","70","image-keyboard-response","89","216313","0.0-6.0-1.41","ANBL","1","f","rechts","21","","","object","f","60","true"
"null","<div style=""font-size:60px;"">+</div>","null","html-keyboard-response","90","216665","0.0-6.0-0.42","ANBL","1","f","rechts","21","","fixation","","","",""
"1313","img/30_180.png","70","image-keyboard-response","91","217978","0.0-6.0-1.42","ANBL","1","f","rechts","21","","","object","f","30","true"
"null","<div style=""font-size:60px;"">+</div>","null","html-keyboard-response","92","218380","0.0-6.0-0.43","ANBL","1","f","rechts","21","","fixation","","","",""
"2942","img/90_210.png","74","image-keyboard-response","93","221324","0.0-6.0-1.43","ANBL","1","f","rechts","21","","","object","f","90","false"
"null","<div style=""font-size:60px;"">+</div>","null","html-keyboard-response","94","221675","0.0-6.0-0.44","ANBL","1","f","rechts","21","","fixation","","","",""
"1585","img/60_330.png","74","image-keyboard-response","95","223261","0.0-6.0-1.44","ANBL","1","f","rechts","21","","","object","j","60","true"
"null","<div style=""font-size:60px;"">+</div>","null","html-keyboard-response","96","223713","0.0-6.0-0.45","ANBL","1","f","rechts","21","","fixation","","","",""
"1756","img/60_210.png","74","image-keyboard-response","97","225470","0.0-6.0-1.45","ANBL","1","f","rechts","21","","","object","f","60","false"
"null","<div style=""font-size:60px;"">+</div>","null","html-keyboard-response","98","225872","0.0-6.0-0.46","ANBL","1","f","rechts","21","","fixation","","","",""
"1689","img/90_30.png","70","image-keyboard-response","99","227562","0.0-6.0-1.46","ANBL","1","f","rechts","21","","","object","f","90","true"
"null","<div style=""font-size:60px;"">+</div>","null","html-keyboard-response","100","228064","0.0-6.0-0.47","ANBL","1","f","rechts","21","","fixation","","","",""
"2075","img/150_90.png","70","image-keyboard-response","101","230140","0.0-6.0-1.47","ANBL","1","f","rechts","21","","","object","f","150","true"
"null","<div style=""font-size:60px;"">+</div>","null","html-keyboard-response","102","230592","0.0-6.0-0.48","ANBL","1","f","rechts","21","","fixation","","","",""
"1343","img/0_120.png","74","image-keyboard-response","103","231936","0.0-6.0-1.48","ANBL","1","f","rechts","21","","","object","j","0","true"
"null","<div style=""font-size:60px;"">+</div>","null","html-keyboard-response","104","232287","0.0-6.0-0.49","ANBL","1","f","rechts","21","","fixation","","","",""
"2021","img/L30_180.png","74","image-keyboard-response","105","234309","0.0-6.0-1.49","ANBL","1","f","rechts","21","","","object","j","30","true"
"null","<div style=""font-size:60px;"">+</div>","null","html-keyboard-response","106","234811","0.0-6.0-0.50","ANBL","1","f","rechts","21","","fixation","","","",""
"2187","img/60_150.png","74","image-keyboard-response","107","236999","0.0-6.0-1.50","ANBL","1","f","rechts","21","","","object","j","60","true"
"null","<div style=""font-size:60px;"">+</div>","null","html-keyboard-response","108","237301","0.0-6.0-0.51","ANBL","1","f","rechts","21","","fixation","","","",""
"1093","img/0_330.png","70","image-keyboard-response","109","238396","0.0-6.0-1.51","ANBL","1","f","rechts","21","","","object","f","0","true"
"null","<div style=""font-size:60px;"">+</div>","null","html-keyboard-response","110","238798","0.0-6.0-0.52","ANBL","1","f","rechts","21","","fixation","","","",""
"1484","img/120_150.png","70","image-keyboard-response","111","240283","0.0-6.0-1.52","ANBL","1","f","rechts","21","","","object","j","120","false"
"null","<div style=""font-size:60px;"">+</div>","null","html-keyboard-response","112","240584","0.0-6.0-0.53","ANBL","1","f","rechts","21","","fixation","","","",""
"1476","img/120_90.png","70","image-keyboard-response","113","242061","0.0-6.0-1.53","ANBL","1","f","rechts","21","","","object","f","120","true"
"null","<div style=""font-size:60px;"">+</div>","null","html-keyboard-response","114","242563","0.0-6.0-0.54","ANBL","1","f","rechts","21","","fixation","","","",""
"1336","img/150_270.png","74","image-keyboard-response","115","243900","0.0-6.0-1.54","ANBL","1","f","rechts","21","","","object","j","150","true"
"null","<div style=""font-size:60px;"">+</div>","null","html-keyboard-response","116","244302","0.0-6.0-0.55","ANBL","1","f","rechts","21","","fixation","","","",""
"1248","img/0_60.png","74","image-keyboard-response","117","245550","0.0-6.0-1.55","ANBL","1","f","rechts","21","","","object","j","0","true"
"null","<div style=""font-size:60px;"">+</div>","null","html-keyboard-response","118","245952","0.0-6.0-0.56","ANBL","1","f","rechts","21","","fixation","","","",""
"1910","img/150_180.png","74","image-keyboard-response","119","247863","0.0-6.0-1.56","ANBL","1","f","rechts","21","","","object","f","150","false"
"null","<div style=""font-size:60px;"">+</div>","null","html-keyboard-response","120","248315","0.0-6.0-0.57","ANBL","1","f","rechts","21","","fixation","","","",""
"1902","img/150_90.png","70","image-keyboard-response","121","250218","0.0-6.0-1.57","ANBL","1","f","rechts","21","","","object","f","150","true"
"null","<div style=""font-size:60px;"">+</div>","null","html-keyboard-response","122","250520","0.0-6.0-0.58","ANBL","1","f","rechts","21","","fixation","","","",""
"1880","img/90_240.png","74","image-keyboard-response","123","252400","0.0-6.0-1.58","ANBL","1","f","rechts","21","","","object","f","90","false"
"null","<div style=""font-size:60px;"">+</div>","null","html-keyboard-response","124","252902","0.0-6.0-0.59","ANBL","1","f","rechts","21","","fixation","","","",""
"1650","img/60_270.png","74","image-keyboard-response","125","254553","0.0-6.0-1.59","ANBL","1","f","rechts","21","","","object","f","60","false"
"null","<div style=""font-size:60px;"">+</div>","null","html-keyboard-response","126","255055","0.0-6.0-0.60","ANBL","1","f","rechts","21","","fixation","","","",""
"1931","img/120_270.png","74","image-keyboard-response","127","256986","0.0-6.0-1.60","ANBL","1","f","rechts","21","","","object","j","120","true"
"null","<div style=""font-size:60px;"">+</div>","null","html-keyboard-response","128","257337","0.0-6.0-0.61","ANBL","1","f","rechts","21","","fixation","","","",""
"1332","img/90_210.png","70","image-keyboard-response","129","258671","0.0-6.0-1.61","ANBL","1","f","rechts","21","","","object","f","90","true"
"null","<div style=""font-size:60px;"">+</div>","null","html-keyboard-response","130","259072","0.0-6.0-0.62","ANBL","1","f","rechts","21","","fixation","","","",""
"1065","img/0_30.png","74","image-keyboard-response","131","260138","0.0-6.0-1.62","ANBL","1","f","rechts","21","","","object","j","0","true"
"null","<div style=""font-size:60px;"">+</div>","null","html-keyboard-response","132","260490","0.0-6.0-0.63","ANBL","1","f","rechts","21","","fixation","","","",""
"2178","img/0_270.png","74","image-keyboard-response","133","262669","0.0-6.0-1.63","ANBL","1","f","rechts","21","","","object","f","0","false"
"null","<div style=""font-size:60px;"">+</div>","null","html-keyboard-response","134","262970","0.0-6.0-0.64","ANBL","1","f","rechts","21","","fixation","","","",""
"2866","img/30_270.png","74","image-keyboard-response","135","265838","0.0-6.0-1.64","ANBL","1","f","rechts","21","","","object","f","30","false"
"null","<div style=""font-size:60px;"">+</div>","null","html-keyboard-response","136","266189","0.0-6.0-0.65","ANBL","1","f","rechts","21","","fixation","","","",""
"1496","img/90_120.png","70","image-keyboard-response","137","267686","0.0-6.0-1.65","ANBL","1","f","rechts","21","","","object","j","90","false"
"null","<div style=""font-size:60px;"">+</div>","null","html-keyboard-response","138","268038","0.0-6.0-0.66","ANBL","1","f","rechts","21","","fixation","","","",""
"1748","img/0_240.png","70","image-keyboard-response","139","269787","0.0-6.0-1.66","ANBL","1","f","rechts","21","","","object","f","0","true"
"null","<div style=""font-size:60px;"">+</div>","null","html-keyboard-response","140","270139","0.0-6.0-0.67","ANBL","1","f","rechts","21","","fixation","","","",""
"1922","img/90_150.png","74","image-keyboard-response","141","272062","0.0-6.0-1.67","ANBL","1","f","rechts","21","","","object","j","90","true"
"null","<div style=""font-size:60px;"">+</div>","null","html-keyboard-response","142","272564","0.0-6.0-0.68","ANBL","1","f","rechts","21","","fixation","","","",""
"1416","img/90_300.png","74","image-keyboard-response","143","273980","0.0-6.0-1.68","ANBL","1","f","rechts","21","","","object","j","90","true"
"null","<div style=""font-size:60px;"">+</div>","null","html-keyboard-response","144","274330","0.0-6.0-0.69","ANBL","1","f","rechts","21","","fixation","","","",""
"1124","img/90_330.png","74","image-keyboard-response","145","275456","0.0-6.0-1.69","ANBL","1","f","rechts","21","","","object","j","90","true"
"null","<div style=""font-size:60px;"">+</div>","null","html-keyboard-response","146","275757","0.0-6.0-0.70","ANBL","1","f","rechts","21","","fixation","","","",""
"2592","img/L60_180.png","74","image-keyboard-response","147","278350","0.0-6.0-1.70","ANBL","1","f","rechts","21","","","object","j","60","true"
"null","<div style=""font-size:60px;"">+</div>","null","html-keyboard-response","148","278700","0.0-6.0-0.71","ANBL","1","f","rechts","21","","fixation","","","",""
"1718","img/60_330.png","74","image-keyboard-response","149","280419","0.0-6.0-1.71","ANBL","1","f","rechts","21","","","object","j","60","true"
"null","<div style=""font-size:60px;"">+</div>","null","html-keyboard-response","150","280870","0.0-6.0-0.72","ANBL","1","f","rechts","21","","fixation","","","",""
"1784","img/120_180.png","70","image-keyboard-response","151","282655","0.0-6.0-1.72","ANBL","1","f","rechts","21","","","object","f","120","true"
"null","<div style=""font-size:60px;"">+</div>","null","html-keyboard-response","152","283057","0.0-6.0-0.73","ANBL","1","f","rechts","21","","fixation","","","",""
"2432","img/L90_180.png","74","image-keyboard-response","153","285490","0.0-6.0-1.73","ANBL","1","f","rechts","21","","","object","j","90","true"
"null","<div style=""font-size:60px;"">+</div>","null","html-keyboard-response","154","285842","0.0-6.0-0.74","ANBL","1","f","rechts","21","","fixation","","","",""
"1813","img/150_240.png","74","image-keyboard-response","155","287656","0.0-6.0-1.74","ANBL","1","f","rechts","21","","","object","j","150","true"
"null","<div style=""font-size:60px;"">+</div>","null","html-keyboard-response","156","288158","0.0-6.0-0.75","ANBL","1","f","rechts","21","","fixation","","","",""
"1545","img/0_210.png","70","image-keyboard-response","157","289703","0.0-6.0-1.75","ANBL","1","f","rechts","21","","","object","f","0","true"
"null","<div style=""font-size:60px;"">+</div>","null","html-keyboard-response","158","290155","0.0-6.0-0.76","ANBL","1","f","rechts","21","","fixation","","","",""
"null","img/90_180.png","null","image-keyboard-response","159","293156","0.0-6.0-1.76","ANBL","1","f","rechts","21","","","object","f","90","false"
"null","<div style=""font-size:60px;"">+</div>","null","html-keyboard-response","160","293557","0.0-6.0-0.77","ANBL","1","f","rechts","21","","fixation","","","",""
"1722","img/L30_180.png","70","image-keyboard-response","161","295280","0.0-6.0-1.77","ANBL","1","f","rechts","21","","","object","j","30","false"
"null","<div style=""font-size:60px;"">+</div>","null","html-keyboard-response","162","295782","0.0-6.0-0.78","ANBL","1","f","rechts","21","","fixation","","","",""
"1732","img/120_210.png","74","image-keyboard-response","163","297515","0.0-6.0-1.78","ANBL","1","f","rechts","21","","","object","f","120","false"
"null","<div style=""font-size:60px;"">+</div>","null","html-keyboard-response","164","297817","0.0-6.0-0.79","ANBL","1","f","rechts","21","","fixation","","","",""
"1524","img/30_90.png","74","image-keyboard-response","165","299342","0.0-6.0-1.79","ANBL","1","f","rechts","21","","","object","j","30","true"
"null","<div style=""font-size:60px;"">+</div>","null","html-keyboard-response","166","299694","0.0-6.0-0.80","ANBL","1","f","rechts","21","","fixation","","","",""
"1189","img/90_30.png","70","image-keyboard-response","167","300884","0.0-6.0-1.80","ANBL","1","f","rechts","21","","","object","f","90","true"
"null","<div style=""font-size:60px;"">+</div>","null","html-keyboard-response","168","301286","0.0-6.0-0.81","ANBL","1","f","rechts","21","","fixation","","","",""
"2194","img/150_120.png","70","image-keyboard-response","169","303480","0.0-6.0-1.81","ANBL","1","f","rechts","21","","","object","f","150","true"
"null","<div style=""font-size:60px;"">+</div>","null","html-keyboard-response","170","303782","0.0-6.0-0.82","ANBL","1","f","rechts","21","","fixation","","","",""
"2835","img/30_180.png","70","image-keyboard-response","171","306617","0.0-6.0-1.82","ANBL","1","f","rechts","21","","","object","f","30","true"
"null","<div style=""font-size:60px;"">+</div>","null","html-keyboard-response","172","306919","0.0-6.0-0.83","ANBL","1","f","rechts","21","","fixation","","","",""
"2549","img/60_30.png","70","image-keyboard-response","173","309469","0.0-6.0-1.83","ANBL","1","f","rechts","21","","","object","f","60","true"
"null","<div style=""font-size:60px;"">+</div>","null","html-keyboard-response","174","309870","0.0-6.0-0.84","ANBL","1","f","rechts","21","","fixation","","","",""
"1311","img/30_120.png","70","image-keyboard-response","175","311183","0.0-6.0-1.84","ANBL","1","f","rechts","21","","","object","j","30","false"
"null","<div style=""font-size:60px;"">+</div>","null","html-keyboard-response","176","311635","0.0-6.0-0.85","ANBL","1","f","rechts","21","","fixation","","","",""
"null","img/60_180.png","null","image-keyboard-response","177","314637","0.0-6.0-1.85","ANBL","1","f","rechts","21","","","object","f","60","false"
"null","<div style=""font-size:60px;"">+</div>","null","html-keyboard-response","178","314989","0.0-6.0-0.86","ANBL","1","f","rechts","21","","fixation","","","",""
"2227","img/60_210.png","70","image-keyboard-response","179","317216","0.0-6.0-1.86","ANBL","1","f","rechts","21","","","object","f","60","true"
"null","<div style=""font-size:60px;"">+</div>","null","html-keyboard-response","180","317518","0.0-6.0-0.87","ANBL","1","f","rechts","21","","fixation","","","",""
"2038","img/150_60.png","70","image-keyboard-response","181","319557","0.0-6.0-1.87","ANBL","1","f","rechts","21","","","object","f","150","true"
"null","<div style=""font-size:60px;"">+</div>","null","html-keyboard-response","182","319958","0.0-6.0-0.88","ANBL","1","f","rechts","21","","fixation","","","",""
"1539","img/0_120.png","74","image-keyboard-response","183","321498","0.0-6.0-1.88","ANBL","1","f","rechts","21","","","object","j","0","true"
"null","<div style=""font-size:60px;"">+</div>","null","html-keyboard-response","184","321850","0.0-6.0-0.89","ANBL","1","f","rechts","21","","fixation","","","",""
"2909","img/L150_180.png","70","image-keyboard-response","185","324759","0.0-6.0-1.89","ANBL","1","f","rechts","21","","","object","j","150","false"
"null","<div style=""font-size:60px;"">+</div>","null","html-keyboard-response","186","325061","0.0-6.0-0.90","ANBL","1","f","rechts","21","","fixation","","","",""
"2031","img/120_30.png","70","image-keyboard-response","187","327092","0.0-6.0-1.90","ANBL","1","f","rechts","21","","","object","f","120","true"
"null","<div style=""font-size:60px;"">+</div>","null","html-keyboard-response","188","327494","0.0-6.0-0.91","ANBL","1","f","rechts","21","","fixation","","","",""
"1524","img/0_90.png","74","image-keyboard-response","189","329019","0.0-6.0-1.91","ANBL","1","f","rechts","21","","","object","j","0","true"
"null","<div style=""font-size:60px;"">+</div>","null","html-keyboard-response","190","329520","0.0-6.0-0.92","ANBL","1","f","rechts","21","","fixation","","","",""
"2494","img/60_150.png","70","image-keyboard-response","191","332016","0.0-6.0-1.92","ANBL","1","f","rechts","21","","","object","j","60","false"
"null","<div style=""font-size:60px;"">+</div>","null","html-keyboard-response","192","332417","0.0-6.0-0.93","ANBL","1","f","rechts","21","","fixation","","","",""
"1480","img/0_300.png","70","image-keyboard-response","193","333899","0.0-6.0-1.93","ANBL","1","f","rechts","21","","","object","f","0","true"
"null","<div style=""font-size:60px;"">+</div>","null","html-keyboard-response","194","334200","0.0-6.0-0.94","ANBL","1","f","rechts","21","","fixation","","","",""
"2673","img/150_300.png","74","image-keyboard-response","195","336874","0.0-6.0-1.94","ANBL","1","f","rechts","21","","","object","j","150","true"
"null","<div style=""font-size:60px;"">+</div>","null","html-keyboard-response","196","337176","0.0-6.0-0.95","ANBL","1","f","rechts","21","","fixation","","","",""
"2862","img/L120_180.png","74","image-keyboard-response","197","340038","0.0-6.0-1.95","ANBL","1","f","rechts","21","","","object","j","120","true"
"null","<div style=""font-size:60px;"">+</div>","null","html-keyboard-response","198","340490","0.0-6.0-0.96","ANBL","1","f","rechts","21","","fixation","","","",""
"2227","img/30_60.png","74","image-keyboard-response","199","342718","0.0-6.0-1.96","ANBL","1","f","rechts","21","","","object","j","30","true"
"null","<div style=""font-size:60px;"">+</div>","null","html-keyboard-response","200","343120","0.0-6.0-0.97","ANBL","1","f","rechts","21","","fixation","","","",""
"2945","img/90_60.png","70","image-keyboard-response","201","346065","0.0-6.0-1.97","ANBL","1","f","rechts","21","","","object","f","90","true"
"null","<div style=""font-size:60px;"">+</div>","null","html-keyboard-response","202","346567","0.0-6.0-0.98","ANBL","1","f","rechts","21","","fixation","","","",""
"1063","img/0_330.png","70","image-keyboard-response","203","347630","0.0-6.0-1.98","ANBL","1","f","rechts","21","","","object","f","0","true"
"null","<div style=""font-size:60px;"">+</div>","null","html-keyboard-response","204","348132","0.0-6.0-0.99","ANBL","1","f","rechts","21","","fixation","","","",""
"2224","img/0_150.png","74","image-keyboard-response","205","350358","0.0-6.0-1.99","ANBL","1","f","rechts","21","","","object","j","0","true"
"null","<div style=""font-size:60px;"">+</div>","null","html-keyboard-response","206","350810","0.0-6.0-0.100","ANBL","1","f","rechts","21","","fixation","","","",""
"2518","img/30_300.png","70","image-keyboard-response","207","353329","0.0-6.0-1.100","ANBL","1","f","rechts","21","","","object","f","30","true"
"null","<div style=""font-size:60px;"">+</div>","null","html-keyboard-response","208","353780","0.0-6.0-0.101","ANBL","1","f","rechts","21","","fixation","","","",""
"1738","img/120_330.png","74","image-keyboard-response","209","355519","0.0-6.0-1.101","ANBL","1","f","rechts","21","","","object","j","120","true"
"null","<div style=""font-size:60px;"">+</div>","null","html-keyboard-response","210","355921","0.0-6.0-0.102","ANBL","1","f","rechts","21","","fixation","","","",""
"2503","img/60_90.png","70","image-keyboard-response","211","358425","0.0-6.0-1.102","ANBL","1","f","rechts","21","","","object","j","60","false"
"null","<div style=""font-size:60px;"">+</div>","null","html-keyboard-response","212","358927","0.0-6.0-0.103","ANBL","1","f","rechts","21","","fixation","","","",""
"2062","img/30_240.png","70","image-keyboard-response","213","360990","0.0-6.0-1.103","ANBL","1","f","rechts","21","","","object","f","30","true"
"null","<div style=""font-size:60px;"">+</div>","null","html-keyboard-response","214","361442","0.0-6.0-0.104","ANBL","1","f","rechts","21","","fixation","","","",""
"1214","img/0_120.png","74","image-keyboard-response","215","362657","0.0-6.0-1.104","ANBL","1","f","rechts","21","","","object","j","0","true"
"null","<div style=""font-size:60px;"">+</div>","null","html-keyboard-response","216","362958","0.0-6.0-0.105","ANBL","1","f","rechts","21","","fixation","","","",""
"2877","img/30_180.png","70","image-keyboard-response","217","365837","0.0-6.0-1.105","ANBL","1","f","rechts","21","","","object","f","30","true"
"null","<div style=""font-size:60px;"">+</div>","null","html-keyboard-response","218","366288","0.0-6.0-0.106","ANBL","1","f","rechts","21","","fixation","","","",""
"2648","img/30_60.png","70","image-keyboard-response","219","368938","0.0-6.0-1.106","ANBL","1","f","rechts","21","","","object","j","30","false"
"null","<div style=""font-size:60px;"">+</div>","null","html-keyboard-response","220","369389","0.0-6.0-0.107","ANBL","1","f","rechts","21","","fixation","","","",""
"null","img/120_150.png","null","image-keyboard-response","221","372392","0.0-6.0-1.107","ANBL","1","f","rechts","21","","","object","j","120","false"
"null","<div style=""font-size:60px;"">+</div>","null","html-keyboard-response","222","372793","0.0-6.0-0.108","ANBL","1","f","rechts","21","","fixation","","","",""
"79","img/0_150.png","74","image-keyboard-response","223","372873","0.0-6.0-1.108","ANBL","1","f","rechts","21","","","object","j","0","true"
"null","<div style=""font-size:60px;"">+</div>","null","html-keyboard-response","224","373325","0.0-6.0-0.109","ANBL","1","f","rechts","21","","fixation","","","",""
"null","img/90_330.png","null","image-keyboard-response","225","376327","0.0-6.0-1.109","ANBL","1","f","rechts","21","","","object","j","90","false"
"null","<div style=""font-size:60px;"">+</div>","null","html-keyboard-response","226","376778","0.0-6.0-0.110","ANBL","1","f","rechts","21","","fixation","","","",""
"1607","img/60_330.png","74","image-keyboard-response","227","378386","0.0-6.0-1.110","ANBL","1","f","rechts","21","","","object","j","60","true"
"null","<div style=""font-size:60px;"">+</div>","null","html-keyboard-response","228","378888","0.0-6.0-0.111","ANBL","1","f","rechts","21","","fixation","","","",""
"951","img/0_300.png","70","image-keyboard-response","229","379840","0.0-6.0-1.111","ANBL","1","f","rechts","21","","","object","f","0","true"
"null","<div style=""font-size:60px;"">+</div>","null","html-keyboard-response","230","380242","0.0-6.0-0.112","ANBL","1","f","rechts","21","","fixation","","","",""
"2434","img/150_240.png","74","image-keyboard-response","231","382677","0.0-6.0-1.112","ANBL","1","f","rechts","21","","","object","j","150","true"
"null","<div style=""font-size:60px;"">+</div>","null","html-keyboard-response","232","383179","0.0-6.0-0.113","ANBL","1","f","rechts","21","","fixation","","","",""
"2130","img/120_90.png","70","image-keyboard-response","233","385310","0.0-6.0-1.113","ANBL","1","f","rechts","21","","","object","f","120","true"
"null","<div style=""font-size:60px;"">+</div>","null","html-keyboard-response","234","385662","0.0-6.0-0.114","ANBL","1","f","rechts","21","","fixation","","","",""
"null","img/120_270.png","null","image-keyboard-response","235","388664","0.0-6.0-1.114","ANBL","1","f","rechts","21","","","object","j","120","false"
"null","<div style=""font-size:60px;"">+</div>","null","html-keyboard-response","236","389016","0.0-6.0-0.115","ANBL","1","f","rechts","21","","fixation","","","",""
"1906","img/120_30.png","70","image-keyboard-response","237","390923","0.0-6.0-1.115","ANBL","1","f","rechts","21","","","object","f","120","true"
"null","<div style=""font-size:60px;"">+</div>","null","html-keyboard-response","238","391424","0.0-6.0-0.116","ANBL","1","f","rechts","21","","fixation","","","",""
"2002","img/90_240.png","74","image-keyboard-response","239","393428","0.0-6.0-1.116","ANBL","1","f","rechts","21","","","object","f","90","false"
"null","<div style=""font-size:60px;"">+</div>","null","html-keyboard-response","240","393829","0.0-6.0-0.117","ANBL","1","f","rechts","21","","fixation","","","",""
"2554","img/30_240.png","74","image-keyboard-response","241","396384","0.0-6.0-1.117","ANBL","1","f","rechts","21","","","object","f","30","false"
"null","<div style=""font-size:60px;"">+</div>","null","html-keyboard-response","242","396886","0.0-6.0-0.118","ANBL","1","f","rechts","21","","fixation","","","",""
"2870","img/L60_180.png","74","image-keyboard-response","243","399757","0.0-6.0-1.118","ANBL","1","f","rechts","21","","","object","j","60","true"
"null","<div style=""font-size:60px;"">+</div>","null","html-keyboard-response","244","400259","0.0-6.0-0.119","ANBL","1","f","rechts","21","","fixation","","","",""
"2502","img/150_60.png","70","image-keyboard-response","245","402762","0.0-6.0-1.119","ANBL","1","f","rechts","21","","","object","f","150","true"
"null","<div style=""font-size:60px;"">+</div>","null","html-keyboard-response","246","403114","0.0-6.0-0.120","ANBL","1","f","rechts","21","","fixation","","","",""
"null","img/90_150.png","null","image-keyboard-response","247","406116","0.0-6.0-1.120","ANBL","1","f","rechts","21","","","object","j","90","false"
"null","<div style=""font-size:60px;"">+</div>","null","html-keyboard-response","248","406618","0.0-6.0-0.121","ANBL","1","f","rechts","21","","fixation","","","",""
"1904","img/60_180.png","70","image-keyboard-response","249","408522","0.0-6.0-1.121","ANBL","1","f","rechts","21","","","object","f","60","true"
"null","<div style=""font-size:60px;"">+</div>","null","html-keyboard-response","250","408974","0.0-6.0-0.122","ANBL","1","f","rechts","21","","fixation","","","",""
"2551","img/60_90.png","74","image-keyboard-response","251","411526","0.0-6.0-1.122","ANBL","1","f","rechts","21","","","object","j","60","true"
"null","<div style=""font-size:60px;"">+</div>","null","html-keyboard-response","252","411927","0.0-6.0-0.123","ANBL","1","f","rechts","21","","fixation","","","",""
"1580","img/30_120.png","74","image-keyboard-response","253","413509","0.0-6.0-1.123","ANBL","1","f","rechts","21","","","object","j","30","true"
"null","<div style=""font-size:60px;"">+</div>","null","html-keyboard-response","254","413860","0.0-6.0-0.124","ANBL","1","f","rechts","21","","fixation","","","",""
"876","img/0_30.png","74","image-keyboard-response","255","414737","0.0-6.0-1.124","ANBL","1","f","rechts","21","","","object","j","0","true"
"null","<div style=""font-size:60px;"">+</div>","null","html-keyboard-response","256","415089","0.0-6.0-0.125","ANBL","1","f","rechts","21","","fixation","","","",""
"2791","img/L120_180.png","74","image-keyboard-response","257","417881","0.0-6.0-1.125","ANBL","1","f","rechts","21","","","object","j","120","true"
"null","<div style=""font-size:60px;"">+</div>","null","html-keyboard-response","258","418233","0.0-6.0-0.126","ANBL","1","f","rechts","21","","fixation","","","",""
"null","img/90_180.png","null","image-keyboard-response","259","421235","0.0-6.0-1.126","ANBL","1","f","rechts","21","","","object","f","90","false"
"null","<div style=""font-size:60px;"">+</div>","null","html-keyboard-response","260","421587","0.0-6.0-0.127","ANBL","1","f","rechts","21","","fixation","","","",""
"2811","img/90_300.png","74","image-keyboard-response","261","424400","0.0-6.0-1.127","ANBL","1","f","rechts","21","","","object","j","90","true"
"null","<div style=""font-size:60px;"">+</div>","null","html-keyboard-response","262","424801","0.0-6.0-0.128","ANBL","1","f","rechts","21","","fixation","","","",""
"1802","img/30_90.png","74","image-keyboard-response","263","426605","0.0-6.0-1.128","ANBL","1","f","rechts","21","","","object","j","30","true"
"null","<div style=""font-size:60px;"">+</div>","null","html-keyboard-response","264","427056","0.0-6.0-0.129","ANBL","1","f","rechts","21","","fixation","","","",""
"2924","img/120_330.png","74","image-keyboard-response","265","429981","0.0-6.0-1.129","ANBL","1","f","rechts","21","","","object","j","120","true"
"null","<div style=""font-size:60px;"">+</div>","null","html-keyboard-response","266","430332","0.0-6.0-0.130","ANBL","1","f","rechts","21","","fixation","","","",""
"null","img/150_120.png","null","image-keyboard-response","267","433334","0.0-6.0-1.130","ANBL","1","f","rechts","21","","","object","f","150","false"
"null","<div style=""font-size:60px;"">+</div>","null","html-keyboard-response","268","433736","0.0-6.0-0.131","ANBL","1","f","rechts","21","","fixation","","","",""
"83","img/30_300.png","70","image-keyboard-response","269","433819","0.0-6.0-1.131","ANBL","1","f","rechts","21","","","object","f","30","true"
"null","<div style=""font-size:60px;"">+</div>","null","html-keyboard-response","270","434321","0.0-6.0-0.132","ANBL","1","f","rechts","21","","fixation","","","",""
"1909","img/120_180.png","74","image-keyboard-response","271","436231","0.0-6.0-1.132","ANBL","1","f","rechts","21","","","object","f","120","false"
"null","<div style=""font-size:60px;"">+</div>","null","html-keyboard-response","272","436583","0.0-6.0-0.133","ANBL","1","f","rechts","21","","fixation","","","",""
"1731","img/150_90.png","70","image-keyboard-response","273","438316","0.0-6.0-1.133","ANBL","1","f","rechts","21","","","object","f","150","true"
"null","<div style=""font-size:60px;"">+</div>","null","html-keyboard-response","274","438667","0.0-6.0-0.134","ANBL","1","f","rechts","21","","fixation","","","",""
"1399","img/150_270.png","74","image-keyboard-response","275","440068","0.0-6.0-1.134","ANBL","1","f","rechts","21","","","object","j","150","true"
"null","<div style=""font-size:60px;"">+</div>","null","html-keyboard-response","276","440469","0.0-6.0-0.135","ANBL","1","f","rechts","21","","fixation","","","",""
"1898","img/60_210.png","70","image-keyboard-response","277","442368","0.0-6.0-1.135","ANBL","1","f","rechts","21","","","object","f","60","true"
"null","<div style=""font-size:60px;"">+</div>","null","html-keyboard-response","278","442770","0.0-6.0-0.136","ANBL","1","f","rechts","21","","fixation","","","",""
"1643","img/120_210.png","70","image-keyboard-response","279","444414","0.0-6.0-1.136","ANBL","1","f","rechts","21","","","object","f","120","true"
"null","<div style=""font-size:60px;"">+</div>","null","html-keyboard-response","280","444816","0.0-6.0-0.137","ANBL","1","f","rechts","21","","fixation","","","",""
"null","img/L30_180.png","null","image-keyboard-response","281","447818","0.0-6.0-1.137","ANBL","1","f","rechts","21","","","object","j","30","false"
"null","<div style=""font-size:60px;"">+</div>","null","html-keyboard-response","282","448320","0.0-6.0-0.138","ANBL","1","f","rechts","21","","fixation","","","",""
"1248","img/0_240.png","70","image-keyboard-response","283","449569","0.0-6.0-1.138","ANBL","1","f","rechts","21","","","object","f","0","true"
"null","<div style=""font-size:60px;"">+</div>","null","html-keyboard-response","284","449971","0.0-6.0-0.139","ANBL","1","f","rechts","21","","fixation","","","",""
"2633","img/90_120.png","74","image-keyboard-response","285","452605","0.0-6.0-1.139","ANBL","1","f","rechts","21","","","object","j","90","true"
"null","<div style=""font-size:60px;"">+</div>","null","html-keyboard-response","286","453006","0.0-6.0-0.140","ANBL","1","f","rechts","21","","fixation","","","",""
"859","img/0_330.png","70","image-keyboard-response","287","453866","0.0-6.0-1.140","ANBL","1","f","rechts","21","","","object","f","0","true"
"null","<div style=""font-size:60px;"">+</div>","null","html-keyboard-response","288","454318","0.0-6.0-0.141","ANBL","1","f","rechts","21","","fixation","","","",""
"1900","img/150_180.png","74","image-keyboard-response","289","456219","0.0-6.0-1.141","ANBL","1","f","rechts","21","","","object","f","150","false"
"null","<div style=""font-size:60px;"">+</div>","null","html-keyboard-response","290","456571","0.0-6.0-0.142","ANBL","1","f","rechts","21","","fixation","","","",""
"2268","img/90_30.png","70","image-keyboard-response","291","458840","0.0-6.0-1.142","ANBL","1","f","rechts","21","","","object","f","90","true"
"null","<div style=""font-size:60px;"">+</div>","null","html-keyboard-response","292","459342","0.0-6.0-0.143","ANBL","1","f","rechts","21","","fixation","","","",""
"1231","img/60_30.png","70","image-keyboard-response","293","460574","0.0-6.0-1.143","ANBL","1","f","rechts","21","","","object","f","60","true"
"null","<div style=""font-size:60px;"">+</div>","null","html-keyboard-response","294","460926","0.0-6.0-0.144","ANBL","1","f","rechts","21","","fixation","","","",""
"2013","img/L150_180.png","70","image-keyboard-response","295","462939","0.0-6.0-1.144","ANBL","1","f","rechts","21","","","object","j","150","false"
"null","<div style=""font-size:60px;"">+</div>","null","html-keyboard-response","296","463241","0.0-6.0-0.145","ANBL","1","f","rechts","21","","fixation","","","",""
"2158","img/L90_180.png","70","image-keyboard-response","297","465399","0.0-6.0-1.145","ANBL","1","f","rechts","21","","","object","j","90","false"
"null","<div style=""font-size:60px;"">+</div>","null","html-keyboard-response","298","465750","0.0-6.0-0.146","ANBL","1","f","rechts","21","","fixation","","","",""
"2180","img/60_270.png","74","image-keyboard-response","299","467931","0.0-6.0-1.146","ANBL","1","f","rechts","21","","","object","f","60","false"
"null","<div style=""font-size:60px;"">+</div>","null","html-keyboard-response","300","468433","0.0-6.0-0.147","ANBL","1","f","rechts","21","","fixation","","","",""
"1850","img/30_270.png","74","image-keyboard-response","301","470284","0.0-6.0-1.147","ANBL","1","f","rechts","21","","","object","f","30","false"
"null","<div style=""font-size:60px;"">+</div>","null","html-keyboard-response","302","470585","0.0-6.0-0.148","ANBL","1","f","rechts","21","","fixation","","","",""
"991","img/0_90.png","74","image-keyboard-response","303","471577","0.0-6.0-1.148","ANBL","1","f","rechts","21","","","object","j","0","true"
"null","<div style=""font-size:60px;"">+</div>","null","html-keyboard-response","304","472029","0.0-6.0-0.149","ANBL","1","f","rechts","21","","fixation","","","",""
"800","img/0_270.png","70","image-keyboard-response","305","472830","0.0-6.0-1.149","ANBL","1","f","rechts","21","","","object","f","0","true"
"null","<div style=""font-size:60px;"">+</div>","null","html-keyboard-response","306","473232","0.0-6.0-0.150","ANBL","1","f","rechts","21","","fixation","","","",""
"1064","img/0_60.png","74","image-keyboard-response","307","474297","0.0-6.0-1.150","ANBL","1","f","rechts","21","","","object","j","0","true"
"null","<div style=""font-size:60px;"">+</div>","null","html-keyboard-response","308","474799","0.0-6.0-0.151","ANBL","1","f","rechts","21","","fixation","","","",""
"2309","img/150_300.png","74","image-keyboard-response","309","477108","0.0-6.0-1.151","ANBL","1","f","rechts","21","","","object","j","150","true"
"null","<div style=""font-size:60px;"">+</div>","null","html-keyboard-response","310","477460","0.0-6.0-0.152","ANBL","1","f","rechts","21","","fixation","","","",""
"1755","img/60_150.png","74","image-keyboard-response","311","479215","0.0-6.0-1.152","ANBL","1","f","rechts","21","","","object","j","60","true"
"null","<div style=""font-size:60px;"">+</div>","null","html-keyboard-response","312","479617","0.0-6.0-0.153","ANBL","1","f","rechts","21","","fixation","","","",""
"1344","img/90_60.png","70","image-keyboard-response","313","480962","0.0-6.0-1.153","ANBL","1","f","rechts","21","","","object","f","90","true"
"null","<div style=""font-size:60px;"">+</div>","null","html-keyboard-response","314","481264","0.0-6.0-0.154","ANBL","1","f","rechts","21","","fixation","","","",""
"2616","img/90_210.png","70","image-keyboard-response","315","483880","0.0-6.0-1.154","ANBL","1","f","rechts","21","","","object","f","90","true"
"null","<div style=""font-size:60px;"">+</div>","null","html-keyboard-response","316","484182","0.0-6.0-0.155","ANBL","1","f","rechts","21","","fixation","","","",""
"1159","img/0_210.png","70","image-keyboard-response","317","485342","0.0-6.0-1.155","ANBL","1","f","rechts","21","","","object","f","0","true"
"null","<div style=""font-size:60px;"">+</div>","null","html-keyboard-response","318","485644","0.0-6.0-0.156","ANBL","1","f","rechts","21","","fixation","","","",""
"806","img/0_30.png","74","image-keyboard-response","319","486451","0.0-6.0-1.156","ANBL","1","f","rechts","21","","","object","j","0","true"
"null","<div style=""font-size:60px;"">+</div>","null","html-keyboard-response","320","486802","0.0-6.0-0.157","ANBL","1","f","rechts","21","","fixation","","","",""
"2038","img/90_60.png","70","image-keyboard-response","321","488842","0.0-6.0-1.157","ANBL","1","f","rechts","21","","","object","f","90","true"
"null","<div style=""font-size:60px;"">+</div>","null","html-keyboard-response","322","489344","0.0-6.0-0.158","ANBL","1","f","rechts","21","","fixation","","","",""
"2237","img/120_150.png","74","image-keyboard-response","323","491581","0.0-6.0-1.158","ANBL","1","f","rechts","21","","","object","j","120","true"
"null","<div style=""font-size:60px;"">+</div>","null","html-keyboard-response","324","491883","0.0-6.0-0.159","ANBL","1","f","rechts","21","","fixation","","","",""
"1099","img/0_90.png","74","image-keyboard-response","325","492982","0.0-6.0-1.159","ANBL","1","f","rechts","21","","","object","j","0","true"
"null","<div style=""font-size:60px;"">+</div>","null","html-keyboard-response","326","493484","0.0-6.0-0.160","ANBL","1","f","rechts","21","","fixation","","","",""
"1293","img/60_210.png","70","image-keyboard-response","327","494778","0.0-6.0-1.160","ANBL","1","f","rechts","21","","","object","f","60","true"
"null","<div style=""font-size:60px;"">+</div>","null","html-keyboard-response","328","495280","0.0-6.0-0.161","ANBL","1","f","rechts","21","","fixation","","","",""
"964","img/0_120.png","74","image-keyboard-response","329","496245","0.0-6.0-1.161","ANBL","1","f","rechts","21","","","object","j","0","true"
"null","<div style=""font-size:60px;"">+</div>","null","html-keyboard-response","330","496597","0.0-6.0-0.162","ANBL","1","f","rechts","21","","fixation","","","",""
"992","img/90_120.png","74","image-keyboard-response","331","497590","0.0-6.0-1.162","ANBL","1","f","rechts","21","","","object","j","90","true"
"null","<div style=""font-size:60px;"">+</div>","null","html-keyboard-response","332","497942","0.0-6.0-0.163","ANBL","1","f","rechts","21","","fixation","","","",""
"1802","img/120_90.png","70","image-keyboard-response","333","499745","0.0-6.0-1.163","ANBL","1","f","rechts","21","","","object","f","120","true"
"null","<div style=""font-size:60px;"">+</div>","null","html-keyboard-response","334","500047","0.0-6.0-0.164","ANBL","1","f","rechts","21","","fixation","","","",""
"null","img/150_180.png","null","image-keyboard-response","335","503049","0.0-6.0-1.164","ANBL","1","f","rechts","21","","","object","f","150","false"
"null","<div style=""font-size:60px;"">+</div>","null","html-keyboard-response","336","503401","0.0-6.0-0.165","ANBL","1","f","rechts","21","","fixation","","","",""
"1938","img/0_330.png","70","image-keyboard-response","337","505340","0.0-6.0-1.165","ANBL","1","f","rechts","21","","","object","f","0","true"
"null","<div style=""font-size:60px;"">+</div>","null","html-keyboard-response","338","505692","0.0-6.0-0.166","ANBL","1","f","rechts","21","","fixation","","","",""
"1778","img/90_300.png","74","image-keyboard-response","339","507470","0.0-6.0-1.166","ANBL","1","f","rechts","21","","","object","j","90","true"
"null","<div style=""font-size:60px;"">+</div>","null","html-keyboard-response","340","507822","0.0-6.0-0.167","ANBL","1","f","rechts","21","","fixation","","","",""
"1268","img/30_270.png","70","image-keyboard-response","341","509091","0.0-6.0-1.167","ANBL","1","f","rechts","21","","","object","f","30","true"
"null","<div style=""font-size:60px;"">+</div>","null","html-keyboard-response","342","509592","0.0-6.0-0.168","ANBL","1","f","rechts","21","","fixation","","","",""
"2222","img/90_240.png","70","image-keyboard-response","343","511816","0.0-6.0-1.168","ANBL","1","f","rechts","21","","","object","f","90","true"
"null","<div style=""font-size:60px;"">+</div>","null","html-keyboard-response","344","512317","0.0-6.0-0.169","ANBL","1","f","rechts","21","","fixation","","","",""
"1497","img/30_300.png","70","image-keyboard-response","345","513815","0.0-6.0-1.169","ANBL","1","f","rechts","21","","","object","f","30","true"
"null","<div style=""font-size:60px;"">+</div>","null","html-keyboard-response","346","514217","0.0-6.0-0.170","ANBL","1","f","rechts","21","","fixation","","","",""
"2498","img/30_180.png","70","image-keyboard-response","347","516716","0.0-6.0-1.170","ANBL","1","f","rechts","21","","","object","f","30","true"
"null","<div style=""font-size:60px;"">+</div>","null","html-keyboard-response","348","517168","0.0-6.0-0.171","ANBL","1","f","rechts","21","","fixation","","","",""
"1161","img/30_120.png","74","image-keyboard-response","349","518329","0.0-6.0-1.171","ANBL","1","f","rechts","21","","","object","j","30","true"
"null","<div style=""font-size:60px;"">+</div>","null","html-keyboard-response","350","518631","0.0-6.0-0.172","ANBL","1","f","rechts","21","","fixation","","","",""
"2330","img/L30_180.png","74","image-keyboard-response","351","520961","0.0-6.0-1.172","ANBL","1","f","rechts","21","","","object","j","30","true"
"null","<div style=""font-size:60px;"">+</div>","null","html-keyboard-response","352","521362","0.0-6.0-0.173","ANBL","1","f","rechts","21","","fixation","","","",""
"1424","img/30_240.png","70","image-keyboard-response","353","522786","0.0-6.0-1.173","ANBL","1","f","rechts","21","","","object","f","30","true"
"null","<div style=""font-size:60px;"">+</div>","null","html-keyboard-response","354","523188","0.0-6.0-0.174","ANBL","1","f","rechts","21","","fixation","","","",""
"1828","img/L120_180.png","74","image-keyboard-response","355","525016","0.0-6.0-1.174","ANBL","1","f","rechts","21","","","object","j","120","true"
"null","<div style=""font-size:60px;"">+</div>","null","html-keyboard-response","356","525467","0.0-6.0-0.175","ANBL","1","f","rechts","21","","fixation","","","",""
"2167","img/L150_180.png","74","image-keyboard-response","357","527635","0.0-6.0-1.175","ANBL","1","f","rechts","21","","","object","j","150","true"
"null","<div style=""font-size:60px;"">+</div>","null","html-keyboard-response","358","528037","0.0-6.0-0.176","ANBL","1","f","rechts","21","","fixation","","","",""
"2134","img/60_90.png","74","image-keyboard-response","359","530172","0.0-6.0-1.176","ANBL","1","f","rechts","21","","","object","j","60","true"
"null","<div style=""font-size:60px;"">+</div>","null","html-keyboard-response","360","530523","0.0-6.0-0.177","ANBL","1","f","rechts","21","","fixation","","","",""
"null","img/120_270.png","null","image-keyboard-response","361","533526","0.0-6.0-1.177","ANBL","1","f","rechts","21","","","object","j","120","false"
"null","<div style=""font-size:60px;"">+</div>","null","html-keyboard-response","362","533927","0.0-6.0-0.178","ANBL","1","f","rechts","21","","fixation","","","",""
"1846","img/150_60.png","70","image-keyboard-response","363","535774","0.0-6.0-1.178","ANBL","1","f","rechts","21","","","object","f","150","true"
"null","<div style=""font-size:60px;"">+</div>","null","html-keyboard-response","364","536176","0.0-6.0-0.179","ANBL","1","f","rechts","21","","fixation","","","",""
"1808","img/150_300.png","74","image-keyboard-response","365","537985","0.0-6.0-1.179","ANBL","1","f","rechts","21","","","object","j","150","true"
"null","<div style=""font-size:60px;"">+</div>","null","html-keyboard-response","366","538287","0.0-6.0-0.180","ANBL","1","f","rechts","21","","fixation","","","",""
"945","img/0_300.png","70","image-keyboard-response","367","539233","0.0-6.0-1.180","ANBL","1","f","rechts","21","","","object","f","0","true"
"null","<div style=""font-size:60px;"">+</div>","null","html-keyboard-response","368","539685","0.0-6.0-0.181","ANBL","1","f","rechts","21","","fixation","","","",""
"2609","img/90_180.png","74","image-keyboard-response","369","542295","0.0-6.0-1.181","ANBL","1","f","rechts","21","","","object","f","90","false"
"null","<div style=""font-size:60px;"">+</div>","null","html-keyboard-response","370","542745","0.0-6.0-0.182","ANBL","1","f","rechts","21","","fixation","","","",""
"2284","img/90_210.png","74","image-keyboard-response","371","545030","0.0-6.0-1.182","ANBL","1","f","rechts","21","","","object","f","90","false"
"null","<div style=""font-size:60px;"">+</div>","null","html-keyboard-response","372","545431","0.0-6.0-0.183","ANBL","1","f","rechts","21","","fixation","","","",""
"844","img/0_60.png","74","image-keyboard-response","373","546276","0.0-6.0-1.183","ANBL","1","f","rechts","21","","","object","j","0","true"
"null","<div style=""font-size:60px;"">+</div>","null","html-keyboard-response","374","546627","0.0-6.0-0.184","ANBL","1","f","rechts","21","","fixation","","","",""
"1343","img/120_330.png","74","image-keyboard-response","375","547971","0.0-6.0-1.184","ANBL","1","f","rechts","21","","","object","j","120","true"
"null","<div style=""font-size:60px;"">+</div>","null","html-keyboard-response","376","548473","0.0-6.0-0.185","ANBL","1","f","rechts","21","","fixation","","","",""
"1495","img/0_210.png","70","image-keyboard-response","377","549969","0.0-6.0-1.185","ANBL","1","f","rechts","21","","","object","f","0","true"
"null","<div style=""font-size:60px;"">+</div>","null","html-keyboard-response","378","550420","0.0-6.0-0.186","ANBL","1","f","rechts","21","","fixation","","","",""
"2844","img/120_30.png","70","image-keyboard-response","379","553265","0.0-6.0-1.186","ANBL","1","f","rechts","21","","","object","f","120","true"
"null","<div style=""font-size:60px;"">+</div>","null","html-keyboard-response","380","553767","0.0-6.0-0.187","ANBL","1","f","rechts","21","","fixation","","","",""
"1572","img/150_240.png","74","image-keyboard-response","381","555340","0.0-6.0-1.187","ANBL","1","f","rechts","21","","","object","j","150","true"
"null","<div style=""font-size:60px;"">+</div>","null","html-keyboard-response","382","555742","0.0-6.0-0.188","ANBL","1","f","rechts","21","","fixation","","","",""
"1666","img/150_90.png","70","image-keyboard-response","383","557409","0.0-6.0-1.188","ANBL","1","f","rechts","21","","","object","f","150","true"
"null","<div style=""font-size:60px;"">+</div>","null","html-keyboard-response","384","557911","0.0-6.0-0.189","ANBL","1","f","rechts","21","","fixation","","","",""
"1505","img/30_90.png","70","image-keyboard-response","385","559416","0.0-6.0-1.189","ANBL","1","f","rechts","21","","","object","j","30","false"
"null","<div style=""font-size:60px;"">+</div>","null","html-keyboard-response","386","559868","0.0-6.0-0.190","ANBL","1","f","rechts","21","","fixation","","","",""
"1205","img/0_270.png","70","image-keyboard-response","387","561074","0.0-6.0-1.190","ANBL","1","f","rechts","21","","","object","f","0","true"
"null","<div style=""font-size:60px;"">+</div>","null","html-keyboard-response","388","561575","0.0-6.0-0.191","ANBL","1","f","rechts","21","","fixation","","","",""
"1827","img/90_30.png","70","image-keyboard-response","389","563403","0.0-6.0-1.191","ANBL","1","f","rechts","21","","","object","f","90","true"
"null","<div style=""font-size:60px;"">+</div>","null","html-keyboard-response","390","563755","0.0-6.0-0.192","ANBL","1","f","rechts","21","","fixation","","","",""
"969","img/0_240.png","70","image-keyboard-response","391","564725","0.0-6.0-1.192","ANBL","1","f","rechts","21","","","object","f","0","true"
"null","<div style=""font-size:60px;"">+</div>","null","html-keyboard-response","392","565126","0.0-6.0-0.193","ANBL","1","f","rechts","21","","fixation","","","",""
"1553","img/120_210.png","74","image-keyboard-response","393","566681","0.0-6.0-1.193","ANBL","1","f","rechts","21","","","object","f","120","false"
"null","<div style=""font-size:60px;"">+</div>","null","html-keyboard-response","394","566982","0.0-6.0-0.194","ANBL","1","f","rechts","21","","fixation","","","",""
"1498","img/30_60.png","70","image-keyboard-response","395","568481","0.0-6.0-1.194","ANBL","1","f","rechts","21","","","object","j","30","false"
"null","<div style=""font-size:60px;"">+</div>","null","html-keyboard-response","396","568933","0.0-6.0-0.195","ANBL","1","f","rechts","21","","fixation","","","",""
"2305","img/L90_180.png","70","image-keyboard-response","397","571240","0.0-6.0-1.195","ANBL","1","f","rechts","21","","","object","j","90","false"
"null","<div style=""font-size:60px;"">+</div>","null","html-keyboard-response","398","571741","0.0-6.0-0.196","ANBL","1","f","rechts","21","","fixation","","","",""
"2265","img/60_150.png","74","image-keyboard-response","399","574007","0.0-6.0-1.196","ANBL","1","f","rechts","21","","","object","j","60","true"
"null","<div style=""font-size:60px;"">+</div>","null","html-keyboard-response","400","574509","0.0-6.0-0.197","ANBL","1","f","rechts","21","","fixation","","","",""
"2424","img/90_330.png","74","image-keyboard-response","401","576934","0.0-6.0-1.197","ANBL","1","f","rechts","21","","","object","j","90","true"
"null","<div style=""font-size:60px;"">+</div>","null","html-keyboard-response","402","577436","0.0-6.0-0.198","ANBL","1","f","rechts","21","","fixation","","","",""
"1932","img/150_120.png","70","image-keyboard-response","403","579369","0.0-6.0-1.198","ANBL","1","f","rechts","21","","","object","f","150","true"
"null","<div style=""font-size:60px;"">+</div>","null","html-keyboard-response","404","579721","0.0-6.0-0.199","ANBL","1","f","rechts","21","","fixation","","","",""
"1698","img/120_180.png","70","image-keyboard-response","405","581419","0.0-6.0-1.199","ANBL","1","f","rechts","21","","","object","f","120","true"
"null","<div style=""font-size:60px;"">+</div>","null","html-keyboard-response","406","581770","0.0-6.0-0.200","ANBL","1","f","rechts","21","","fixation","","","",""
"1301","img/60_330.png","74","image-keyboard-response","407","583072","0.0-6.0-1.200","ANBL","1","f","rechts","21","","","object","j","60","true"
"null","<div style=""font-size:60px;"">+</div>","null","html-keyboard-response","408","583523","0.0-6.0-0.201","ANBL","1","f","rechts","21","","fixation","","","",""
"2532","img/60_180.png","70","image-keyboard-response","409","586056","0.0-6.0-1.201","ANBL","1","f","rechts","21","","","object","f","60","true"
"null","<div style=""font-size:60px;"">+</div>","null","html-keyboard-response","410","586507","0.0-6.0-0.202","ANBL","1","f","rechts","21","","fixation","","","",""
"1600","img/60_30.png","70","image-keyboard-response","411","588109","0.0-6.0-1.202","ANBL","1","f","rechts","21","","","object","f","60","true"
"null","<div style=""font-size:60px;"">+</div>","null","html-keyboard-response","412","588510","0.0-6.0-0.203","ANBL","1","f","rechts","21","","fixation","","","",""
"1610","img/150_270.png","74","image-keyboard-response","413","590122","0.0-6.0-1.203","ANBL","1","f","rechts","21","","","object","j","150","true"
"null","<div style=""font-size:60px;"">+</div>","null","html-keyboard-response","414","590423","0.0-6.0-0.204","ANBL","1","f","rechts","21","","fixation","","","",""
"2320","img/0_150.png","74","image-keyboard-response","415","592744","0.0-6.0-1.204","ANBL","1","f","rechts","21","","","object","j","0","true"
"null","<div style=""font-size:60px;"">+</div>","null","html-keyboard-response","416","593096","0.0-6.0-0.205","ANBL","1","f","rechts","21","","fixation","","","",""
"1736","img/60_270.png","70","image-keyboard-response","417","594833","0.0-6.0-1.205","ANBL","1","f","rechts","21","","","object","f","60","true"
"null","<div style=""font-size:60px;"">+</div>","null","html-keyboard-response","418","595285","0.0-6.0-0.206","ANBL","1","f","rechts","21","","fixation","","","",""
"2195","img/L60_180.png","74","image-keyboard-response","419","597481","0.0-6.0-1.206","ANBL","1","f","rechts","21","","","object","j","60","true"
"null","<div style=""font-size:60px;"">+</div>","null","html-keyboard-response","420","597883","0.0-6.0-0.207","ANBL","1","f","rechts","21","","fixation","","","",""
"1794","img/90_150.png","74","image-keyboard-response","421","599678","0.0-6.0-1.207","ANBL","1","f","rechts","21","","","object","j","90","true"
"14537","<p>Du hast in 73% der Versuche korrekt entschieden.</p><p>Deine durchschnittliche Reaktionszeit war  1732ms.</p><p>Dr&uuml;cke eine beliebige Taste, um die Session zu beenden. Vielen Dank!</p>","72","html-keyboard-response","422","614217","0.0-7.0","ANBL","1","f","rechts","21","","","","","",""
