"rt","stimulus","key_press","trial_type","trial_index","time_elapsed","internal_node_id","subject","session","sex","handedness","age","responses","test_part","condition","correct_response","angle","correct"
"1192","<p>Mental Rotation Experiment.</p> <p>Dr&uuml;cke eine beliebige Taste, um anzufangen.</p>","72","html-keyboard-response","0","1196","0.0-0.0","ANBL","2","f","rechts","21","","","","","",""
"5964","","","survey-text","1","7162","0.0-1.0","ANBL","2","f","rechts","21","{""Q0"":""ANBL""}","","","","",""
"5924","","","survey-text","2","13086","0.0-2.0","ANBL","2","f","rechts","21","{""Q0"":""2""}","","","","",""
"4581","","","survey-multi-choice","3","17672","0.0-3.0","ANBL","2","f","rechts","21","{""Q0"":""f"",""Q1"":""rechts""}","","","","",""
"3162","","","survey-text","4","20834","0.0-4.0","ANBL","2","f","rechts","21","{""Q0"":""21""}","","","","",""
"283018","<p>Stell dir vor, dass du vor einem runden Tisch stehst, auf dem sich ein blauer Ball am Tischrand befindet. Entlang des Tischrands ist jeweils ein verschieden langer Pfeil. Nun bleibst du an deinem Platz vor dem Tisch und rotierst den Tisch entlang des Pfeils (gleiche Richtung und Länge). </p> <img src='img/30_180.png'></img> <br><p> Nachdem du diese (vorgestellte) Rotation durchgef&uuml;hrt hast, schau in Richtung der Tischmitte, und entscheide dann, ob der Ball links oder rechts von dir liegt.</p> <p>Dr&uuml;cke die <strong>'f'</strong>-Taste f&uuml;r links, die <strong>'j'</strong>-Taste f&uuml;r rechts.</p><br><p> Das Bild wird jeweils 1 Sekunde lang pr&auml;sentiert. Du hast 3 Sekunden Zeit eine Entscheidung zu treffen.</p>","74","html-keyboard-response","5","303854","0.0-5.0","ANBL","2","f","rechts","21","","","","","",""
"null","<div style=""font-size:60px;"">+</div>","null","html-keyboard-response","6","305157","0.0-6.0-0.0","ANBL","2","f","rechts","21","","fixation","","","",""
"1161","img/60_270.png","74","image-keyboard-response","7","306320","0.0-6.0-1.0","ANBL","2","f","rechts","21","","","object","f","60","false"
"null","<div style=""font-size:60px;"">+</div>","null","html-keyboard-response","8","306821","0.0-6.0-0.1","ANBL","2","f","rechts","21","","fixation","","","",""
"1267","img/L60_180.png","74","image-keyboard-response","9","308090","0.0-6.0-1.1","ANBL","2","f","rechts","21","","","object","j","60","true"
"null","<div style=""font-size:60px;"">+</div>","null","html-keyboard-response","10","308391","0.0-6.0-0.2","ANBL","2","f","rechts","21","","fixation","","","",""
"1569","img/150_240.png","74","image-keyboard-response","11","309962","0.0-6.0-1.2","ANBL","2","f","rechts","21","","","object","j","150","true"
"null","<div style=""font-size:60px;"">+</div>","null","html-keyboard-response","12","310363","0.0-6.0-0.3","ANBL","2","f","rechts","21","","fixation","","","",""
"1726","img/L120_180.png","74","image-keyboard-response","13","312091","0.0-6.0-1.3","ANBL","2","f","rechts","21","","","object","j","120","true"
"null","<div style=""font-size:60px;"">+</div>","null","html-keyboard-response","14","312593","0.0-6.0-0.4","ANBL","2","f","rechts","21","","fixation","","","",""
"1755","img/90_120.png","74","image-keyboard-response","15","314349","0.0-6.0-1.4","ANBL","2","f","rechts","21","","","object","j","90","true"
"null","<div style=""font-size:60px;"">+</div>","null","html-keyboard-response","16","314701","0.0-6.0-0.5","ANBL","2","f","rechts","21","","fixation","","","",""
"2011","img/90_210.png","70","image-keyboard-response","17","316713","0.0-6.0-1.5","ANBL","2","f","rechts","21","","","object","f","90","true"
"null","<div style=""font-size:60px;"">+</div>","null","html-keyboard-response","18","317165","0.0-6.0-0.6","ANBL","2","f","rechts","21","","fixation","","","",""
"1776","img/90_60.png","70","image-keyboard-response","19","318942","0.0-6.0-1.6","ANBL","2","f","rechts","21","","","object","f","90","true"
"null","<div style=""font-size:60px;"">+</div>","null","html-keyboard-response","20","319393","0.0-6.0-0.7","ANBL","2","f","rechts","21","","fixation","","","",""
"2012","img/120_180.png","70","image-keyboard-response","21","321406","0.0-6.0-1.7","ANBL","2","f","rechts","21","","","object","f","120","true"
"null","<div style=""font-size:60px;"">+</div>","null","html-keyboard-response","22","321807","0.0-6.0-0.8","ANBL","2","f","rechts","21","","fixation","","","",""
"1578","img/90_30.png","70","image-keyboard-response","23","323386","0.0-6.0-1.8","ANBL","2","f","rechts","21","","","object","f","90","true"
"null","<div style=""font-size:60px;"">+</div>","null","html-keyboard-response","24","323838","0.0-6.0-0.9","ANBL","2","f","rechts","21","","fixation","","","",""
"960","img/0_120.png","74","image-keyboard-response","25","324800","0.0-6.0-1.9","ANBL","2","f","rechts","21","","","object","j","0","true"
"null","<div style=""font-size:60px;"">+</div>","null","html-keyboard-response","26","325151","0.0-6.0-0.10","ANBL","2","f","rechts","21","","fixation","","","",""
"1557","img/120_330.png","74","image-keyboard-response","27","326710","0.0-6.0-1.10","ANBL","2","f","rechts","21","","","object","j","120","true"
"null","<div style=""font-size:60px;"">+</div>","null","html-keyboard-response","28","327160","0.0-6.0-0.11","ANBL","2","f","rechts","21","","fixation","","","",""
"1540","img/L30_180.png","74","image-keyboard-response","29","328703","0.0-6.0-1.11","ANBL","2","f","rechts","21","","","object","j","30","true"
"null","<div style=""font-size:60px;"">+</div>","null","html-keyboard-response","30","329055","0.0-6.0-0.12","ANBL","2","f","rechts","21","","fixation","","","",""
"1639","img/150_180.png","70","image-keyboard-response","31","330696","0.0-6.0-1.12","ANBL","2","f","rechts","21","","","object","f","150","true"
"null","<div style=""font-size:60px;"">+</div>","null","html-keyboard-response","32","331048","0.0-6.0-0.13","ANBL","2","f","rechts","21","","fixation","","","",""
"1049","img/0_270.png","70","image-keyboard-response","33","332098","0.0-6.0-1.13","ANBL","2","f","rechts","21","","","object","f","0","true"
"null","<div style=""font-size:60px;"">+</div>","null","html-keyboard-response","34","332400","0.0-6.0-0.14","ANBL","2","f","rechts","21","","fixation","","","",""
"1192","img/0_30.png","74","image-keyboard-response","35","333593","0.0-6.0-1.14","ANBL","2","f","rechts","21","","","object","j","0","true"
"null","<div style=""font-size:60px;"">+</div>","null","html-keyboard-response","36","334095","0.0-6.0-0.15","ANBL","2","f","rechts","21","","fixation","","","",""
"1336","img/150_60.png","70","image-keyboard-response","37","335432","0.0-6.0-1.15","ANBL","2","f","rechts","21","","","object","f","150","true"
"null","<div style=""font-size:60px;"">+</div>","null","html-keyboard-response","38","335734","0.0-6.0-0.16","ANBL","2","f","rechts","21","","fixation","","","",""
"1312","img/90_150.png","70","image-keyboard-response","39","337047","0.0-6.0-1.16","ANBL","2","f","rechts","21","","","object","j","90","false"
"null","<div style=""font-size:60px;"">+</div>","null","html-keyboard-response","40","337549","0.0-6.0-0.17","ANBL","2","f","rechts","21","","fixation","","","",""
"1459","img/120_210.png","74","image-keyboard-response","41","339009","0.0-6.0-1.17","ANBL","2","f","rechts","21","","","object","f","120","false"
"null","<div style=""font-size:60px;"">+</div>","null","html-keyboard-response","42","339511","0.0-6.0-0.18","ANBL","2","f","rechts","21","","fixation","","","",""
"1643","img/120_150.png","70","image-keyboard-response","43","341155","0.0-6.0-1.18","ANBL","2","f","rechts","21","","","object","j","120","false"
"null","<div style=""font-size:60px;"">+</div>","null","html-keyboard-response","44","341607","0.0-6.0-0.19","ANBL","2","f","rechts","21","","fixation","","","",""
"1107","img/150_120.png","70","image-keyboard-response","45","342715","0.0-6.0-1.19","ANBL","2","f","rechts","21","","","object","f","150","true"
"null","<div style=""font-size:60px;"">+</div>","null","html-keyboard-response","46","343067","0.0-6.0-0.20","ANBL","2","f","rechts","21","","fixation","","","",""
"1844","img/30_180.png","70","image-keyboard-response","47","344912","0.0-6.0-1.20","ANBL","2","f","rechts","21","","","object","f","30","true"
"null","<div style=""font-size:60px;"">+</div>","null","html-keyboard-response","48","345314","0.0-6.0-0.21","ANBL","2","f","rechts","21","","fixation","","","",""
"1388","img/30_60.png","74","image-keyboard-response","49","346703","0.0-6.0-1.21","ANBL","2","f","rechts","21","","","object","j","30","true"
"null","<div style=""font-size:60px;"">+</div>","null","html-keyboard-response","50","347054","0.0-6.0-0.22","ANBL","2","f","rechts","21","","fixation","","","",""
"1545","img/120_90.png","70","image-keyboard-response","51","348601","0.0-6.0-1.22","ANBL","2","f","rechts","21","","","object","f","120","true"
"null","<div style=""font-size:60px;"">+</div>","null","html-keyboard-response","52","348902","0.0-6.0-0.23","ANBL","2","f","rechts","21","","fixation","","","",""
"1809","img/120_270.png","74","image-keyboard-response","53","350712","0.0-6.0-1.23","ANBL","2","f","rechts","21","","","object","j","120","true"
"null","<div style=""font-size:60px;"">+</div>","null","html-keyboard-response","54","351114","0.0-6.0-0.24","ANBL","2","f","rechts","21","","fixation","","","",""
"1314","img/30_270.png","70","image-keyboard-response","55","352429","0.0-6.0-1.24","ANBL","2","f","rechts","21","","","object","f","30","true"
"null","<div style=""font-size:60px;"">+</div>","null","html-keyboard-response","56","352931","0.0-6.0-0.25","ANBL","2","f","rechts","21","","fixation","","","",""
"1515","img/L90_180.png","74","image-keyboard-response","57","354447","0.0-6.0-1.25","ANBL","2","f","rechts","21","","","object","j","90","true"
"null","<div style=""font-size:60px;"">+</div>","null","html-keyboard-response","58","354899","0.0-6.0-0.26","ANBL","2","f","rechts","21","","fixation","","","",""
"819","img/0_60.png","70","image-keyboard-response","59","355719","0.0-6.0-1.26","ANBL","2","f","rechts","21","","","object","j","0","false"
"null","<div style=""font-size:60px;"">+</div>","null","html-keyboard-response","60","356021","0.0-6.0-0.27","ANBL","2","f","rechts","21","","fixation","","","",""
"807","img/0_210.png","70","image-keyboard-response","61","356829","0.0-6.0-1.27","ANBL","2","f","rechts","21","","","object","f","0","true"
"null","<div style=""font-size:60px;"">+</div>","null","html-keyboard-response","62","357331","0.0-6.0-0.28","ANBL","2","f","rechts","21","","fixation","","","",""
"1633","img/L150_180.png","74","image-keyboard-response","63","358965","0.0-6.0-1.28","ANBL","2","f","rechts","21","","","object","j","150","true"
"null","<div style=""font-size:60px;"">+</div>","null","html-keyboard-response","64","359267","0.0-6.0-0.29","ANBL","2","f","rechts","21","","fixation","","","",""
"1480","img/60_210.png","70","image-keyboard-response","65","360748","0.0-6.0-1.29","ANBL","2","f","rechts","21","","","object","f","60","true"
"null","<div style=""font-size:60px;"">+</div>","null","html-keyboard-response","66","361100","0.0-6.0-0.30","ANBL","2","f","rechts","21","","fixation","","","",""
"1073","img/30_300.png","70","image-keyboard-response","67","362174","0.0-6.0-1.30","ANBL","2","f","rechts","21","","","object","f","30","true"
"null","<div style=""font-size:60px;"">+</div>","null","html-keyboard-response","68","362525","0.0-6.0-0.31","ANBL","2","f","rechts","21","","fixation","","","",""
"747","img/0_240.png","70","image-keyboard-response","69","363273","0.0-6.0-1.31","ANBL","2","f","rechts","21","","","object","f","0","true"
"null","<div style=""font-size:60px;"">+</div>","null","html-keyboard-response","70","363725","0.0-6.0-0.32","ANBL","2","f","rechts","21","","fixation","","","",""
"1752","img/60_180.png","70","image-keyboard-response","71","365478","0.0-6.0-1.32","ANBL","2","f","rechts","21","","","object","f","60","true"
"null","<div style=""font-size:60px;"">+</div>","null","html-keyboard-response","72","365779","0.0-6.0-0.33","ANBL","2","f","rechts","21","","fixation","","","",""
"1079","img/30_90.png","74","image-keyboard-response","73","366859","0.0-6.0-1.33","ANBL","2","f","rechts","21","","","object","j","30","true"
"null","<div style=""font-size:60px;"">+</div>","null","html-keyboard-response","74","367311","0.0-6.0-0.34","ANBL","2","f","rechts","21","","fixation","","","",""
"977","img/90_240.png","70","image-keyboard-response","75","368290","0.0-6.0-1.34","ANBL","2","f","rechts","21","","","object","f","90","true"
"null","<div style=""font-size:60px;"">+</div>","null","html-keyboard-response","76","368591","0.0-6.0-0.35","ANBL","2","f","rechts","21","","fixation","","","",""
"1602","img/90_180.png","70","image-keyboard-response","77","370196","0.0-6.0-1.35","ANBL","2","f","rechts","21","","","object","f","90","true"
"null","<div style=""font-size:60px;"">+</div>","null","html-keyboard-response","78","370647","0.0-6.0-0.36","ANBL","2","f","rechts","21","","fixation","","","",""
"1152","img/90_300.png","74","image-keyboard-response","79","371802","0.0-6.0-1.36","ANBL","2","f","rechts","21","","","object","j","90","true"
"null","<div style=""font-size:60px;"">+</div>","null","html-keyboard-response","80","372103","0.0-6.0-0.37","ANBL","2","f","rechts","21","","fixation","","","",""
"1287","img/60_150.png","74","image-keyboard-response","81","373391","0.0-6.0-1.37","ANBL","2","f","rechts","21","","","object","j","60","true"
"null","<div style=""font-size:60px;"">+</div>","null","html-keyboard-response","82","373843","0.0-6.0-0.38","ANBL","2","f","rechts","21","","fixation","","","",""
"810","img/30_120.png","74","image-keyboard-response","83","374654","0.0-6.0-1.38","ANBL","2","f","rechts","21","","","object","j","30","true"
"null","<div style=""font-size:60px;"">+</div>","null","html-keyboard-response","84","375056","0.0-6.0-0.39","ANBL","2","f","rechts","21","","fixation","","","",""
"2140","img/150_90.png","74","image-keyboard-response","85","377197","0.0-6.0-1.39","ANBL","2","f","rechts","21","","","object","f","150","false"
"null","<div style=""font-size:60px;"">+</div>","null","html-keyboard-response","86","377599","0.0-6.0-0.40","ANBL","2","f","rechts","21","","fixation","","","",""
"864","img/0_330.png","70","image-keyboard-response","87","378464","0.0-6.0-1.40","ANBL","2","f","rechts","21","","","object","f","0","true"
"null","<div style=""font-size:60px;"">+</div>","null","html-keyboard-response","88","378816","0.0-6.0-0.41","ANBL","2","f","rechts","21","","fixation","","","",""
"1508","img/30_240.png","70","image-keyboard-response","89","380325","0.0-6.0-1.41","ANBL","2","f","rechts","21","","","object","f","30","true"
"null","<div style=""font-size:60px;"">+</div>","null","html-keyboard-response","90","380777","0.0-6.0-0.42","ANBL","2","f","rechts","21","","fixation","","","",""
"758","img/0_300.png","70","image-keyboard-response","91","381536","0.0-6.0-1.42","ANBL","2","f","rechts","21","","","object","f","0","true"
"null","<div style=""font-size:60px;"">+</div>","null","html-keyboard-response","92","381886","0.0-6.0-0.43","ANBL","2","f","rechts","21","","fixation","","","",""
"1194","img/150_300.png","74","image-keyboard-response","93","383082","0.0-6.0-1.43","ANBL","2","f","rechts","21","","","object","j","150","true"
"null","<div style=""font-size:60px;"">+</div>","null","html-keyboard-response","94","383434","0.0-6.0-0.44","ANBL","2","f","rechts","21","","fixation","","","",""
"759","img/0_150.png","74","image-keyboard-response","95","384194","0.0-6.0-1.44","ANBL","2","f","rechts","21","","","object","j","0","true"
"null","<div style=""font-size:60px;"">+</div>","null","html-keyboard-response","96","384495","0.0-6.0-0.45","ANBL","2","f","rechts","21","","fixation","","","",""
"1990","img/60_90.png","70","image-keyboard-response","97","386487","0.0-6.0-1.45","ANBL","2","f","rechts","21","","","object","j","60","false"
"null","<div style=""font-size:60px;"">+</div>","null","html-keyboard-response","98","386889","0.0-6.0-0.46","ANBL","2","f","rechts","21","","fixation","","","",""
"752","img/60_30.png","70","image-keyboard-response","99","387642","0.0-6.0-1.46","ANBL","2","f","rechts","21","","","object","f","60","true"
"null","<div style=""font-size:60px;"">+</div>","null","html-keyboard-response","100","387994","0.0-6.0-0.47","ANBL","2","f","rechts","21","","fixation","","","",""
"1926","img/150_270.png","70","image-keyboard-response","101","389921","0.0-6.0-1.47","ANBL","2","f","rechts","21","","","object","j","150","false"
"null","<div style=""font-size:60px;"">+</div>","null","html-keyboard-response","102","390373","0.0-6.0-0.48","ANBL","2","f","rechts","21","","fixation","","","",""
"846","img/0_90.png","74","image-keyboard-response","103","391220","0.0-6.0-1.48","ANBL","2","f","rechts","21","","","object","j","0","true"
"null","<div style=""font-size:60px;"">+</div>","null","html-keyboard-response","104","391622","0.0-6.0-0.49","ANBL","2","f","rechts","21","","fixation","","","",""
"855","img/60_330.png","74","image-keyboard-response","105","392479","0.0-6.0-1.49","ANBL","2","f","rechts","21","","","object","j","60","true"
"null","<div style=""font-size:60px;"">+</div>","null","html-keyboard-response","106","392980","0.0-6.0-0.50","ANBL","2","f","rechts","21","","fixation","","","",""
"753","img/90_330.png","74","image-keyboard-response","107","393734","0.0-6.0-1.50","ANBL","2","f","rechts","21","","","object","j","90","true"
"null","<div style=""font-size:60px;"">+</div>","null","html-keyboard-response","108","394186","0.0-6.0-0.51","ANBL","2","f","rechts","21","","fixation","","","",""
"1071","img/120_30.png","70","image-keyboard-response","109","395258","0.0-6.0-1.51","ANBL","2","f","rechts","21","","","object","f","120","true"
"null","<div style=""font-size:60px;"">+</div>","null","html-keyboard-response","110","395710","0.0-6.0-0.52","ANBL","2","f","rechts","21","","fixation","","","",""
"1334","img/90_210.png","70","image-keyboard-response","111","397044","0.0-6.0-1.52","ANBL","2","f","rechts","21","","","object","f","90","true"
"null","<div style=""font-size:60px;"">+</div>","null","html-keyboard-response","112","397496","0.0-6.0-0.53","ANBL","2","f","rechts","21","","fixation","","","",""
"1192","img/60_210.png","70","image-keyboard-response","113","398689","0.0-6.0-1.53","ANBL","2","f","rechts","21","","","object","f","60","true"
"null","<div style=""font-size:60px;"">+</div>","null","html-keyboard-response","114","398991","0.0-6.0-0.54","ANBL","2","f","rechts","21","","fixation","","","",""
"1059","img/90_60.png","70","image-keyboard-response","115","400050","0.0-6.0-1.54","ANBL","2","f","rechts","21","","","object","f","90","true"
"null","<div style=""font-size:60px;"">+</div>","null","html-keyboard-response","116","400502","0.0-6.0-0.55","ANBL","2","f","rechts","21","","fixation","","","",""
"768","img/0_60.png","74","image-keyboard-response","117","401270","0.0-6.0-1.55","ANBL","2","f","rechts","21","","","object","j","0","true"
"null","<div style=""font-size:60px;"">+</div>","null","html-keyboard-response","118","401772","0.0-6.0-0.56","ANBL","2","f","rechts","21","","fixation","","","",""
"1166","img/30_120.png","74","image-keyboard-response","119","402938","0.0-6.0-1.56","ANBL","2","f","rechts","21","","","object","j","30","true"
"null","<div style=""font-size:60px;"">+</div>","null","html-keyboard-response","120","403390","0.0-6.0-0.57","ANBL","2","f","rechts","21","","fixation","","","",""
"1896","img/L120_180.png","74","image-keyboard-response","121","405286","0.0-6.0-1.57","ANBL","2","f","rechts","21","","","object","j","120","true"
"null","<div style=""font-size:60px;"">+</div>","null","html-keyboard-response","122","405588","0.0-6.0-0.58","ANBL","2","f","rechts","21","","fixation","","","",""
"745","img/0_90.png","74","image-keyboard-response","123","406334","0.0-6.0-1.58","ANBL","2","f","rechts","21","","","object","j","0","true"
"null","<div style=""font-size:60px;"">+</div>","null","html-keyboard-response","124","406685","0.0-6.0-0.59","ANBL","2","f","rechts","21","","fixation","","","",""
"923","img/120_30.png","70","image-keyboard-response","125","407610","0.0-6.0-1.59","ANBL","2","f","rechts","21","","","object","f","120","true"
"null","<div style=""font-size:60px;"">+</div>","null","html-keyboard-response","126","408012","0.0-6.0-0.60","ANBL","2","f","rechts","21","","fixation","","","",""
"955","img/150_60.png","70","image-keyboard-response","127","408968","0.0-6.0-1.60","ANBL","2","f","rechts","21","","","object","f","150","true"
"null","<div style=""font-size:60px;"">+</div>","null","html-keyboard-response","128","409269","0.0-6.0-0.61","ANBL","2","f","rechts","21","","fixation","","","",""
"1507","img/90_240.png","70","image-keyboard-response","129","410776","0.0-6.0-1.61","ANBL","2","f","rechts","21","","","object","f","90","true"
"null","<div style=""font-size:60px;"">+</div>","null","html-keyboard-response","130","411277","0.0-6.0-0.62","ANBL","2","f","rechts","21","","fixation","","","",""
"1004","img/90_30.png","70","image-keyboard-response","131","412282","0.0-6.0-1.62","ANBL","2","f","rechts","21","","","object","f","90","true"
"null","<div style=""font-size:60px;"">+</div>","null","html-keyboard-response","132","412732","0.0-6.0-0.63","ANBL","2","f","rechts","21","","fixation","","","",""
"849","img/L30_180.png","74","image-keyboard-response","133","413582","0.0-6.0-1.63","ANBL","2","f","rechts","21","","","object","j","30","true"
"null","<div style=""font-size:60px;"">+</div>","null","html-keyboard-response","134","414084","0.0-6.0-0.64","ANBL","2","f","rechts","21","","fixation","","","",""
"1561","img/120_180.png","70","image-keyboard-response","135","415646","0.0-6.0-1.64","ANBL","2","f","rechts","21","","","object","f","120","true"
"null","<div style=""font-size:60px;"">+</div>","null","html-keyboard-response","136","416048","0.0-6.0-0.65","ANBL","2","f","rechts","21","","fixation","","","",""
"2772","img/0_240.png","70","image-keyboard-response","137","418821","0.0-6.0-1.65","ANBL","2","f","rechts","21","","","object","f","0","true"
"null","<div style=""font-size:60px;"">+</div>","null","html-keyboard-response","138","419273","0.0-6.0-0.66","ANBL","2","f","rechts","21","","fixation","","","",""
"2373","img/150_120.png","70","image-keyboard-response","139","421647","0.0-6.0-1.66","ANBL","2","f","rechts","21","","","object","f","150","true"
"null","<div style=""font-size:60px;"">+</div>","null","html-keyboard-response","140","422048","0.0-6.0-0.67","ANBL","2","f","rechts","21","","fixation","","","",""
"1708","img/120_210.png","74","image-keyboard-response","141","423757","0.0-6.0-1.67","ANBL","2","f","rechts","21","","","object","f","120","false"
"null","<div style=""font-size:60px;"">+</div>","null","html-keyboard-response","142","424109","0.0-6.0-0.68","ANBL","2","f","rechts","21","","fixation","","","",""
"872","img/90_330.png","74","image-keyboard-response","143","424981","0.0-6.0-1.68","ANBL","2","f","rechts","21","","","object","j","90","true"
"null","<div style=""font-size:60px;"">+</div>","null","html-keyboard-response","144","425383","0.0-6.0-0.69","ANBL","2","f","rechts","21","","fixation","","","",""
"1324","img/30_60.png","70","image-keyboard-response","145","426708","0.0-6.0-1.69","ANBL","2","f","rechts","21","","","object","j","30","false"
"null","<div style=""font-size:60px;"">+</div>","null","html-keyboard-response","146","427010","0.0-6.0-0.70","ANBL","2","f","rechts","21","","fixation","","","",""
"1656","img/150_270.png","74","image-keyboard-response","147","428667","0.0-6.0-1.70","ANBL","2","f","rechts","21","","","object","j","150","true"
"null","<div style=""font-size:60px;"">+</div>","null","html-keyboard-response","148","428968","0.0-6.0-0.71","ANBL","2","f","rechts","21","","fixation","","","",""
"1266","img/60_90.png","70","image-keyboard-response","149","430235","0.0-6.0-1.71","ANBL","2","f","rechts","21","","","object","j","60","false"
"null","<div style=""font-size:60px;"">+</div>","null","html-keyboard-response","150","430637","0.0-6.0-0.72","ANBL","2","f","rechts","21","","fixation","","","",""
"1544","img/90_180.png","74","image-keyboard-response","151","432182","0.0-6.0-1.72","ANBL","2","f","rechts","21","","","object","f","90","false"
"null","<div style=""font-size:60px;"">+</div>","null","html-keyboard-response","152","432584","0.0-6.0-0.73","ANBL","2","f","rechts","21","","fixation","","","",""
"902","img/90_300.png","74","image-keyboard-response","153","433486","0.0-6.0-1.73","ANBL","2","f","rechts","21","","","object","j","90","true"
"null","<div style=""font-size:60px;"">+</div>","null","html-keyboard-response","154","433988","0.0-6.0-0.74","ANBL","2","f","rechts","21","","fixation","","","",""
"801","img/0_330.png","70","image-keyboard-response","155","434790","0.0-6.0-1.74","ANBL","2","f","rechts","21","","","object","f","0","true"
"null","<div style=""font-size:60px;"">+</div>","null","html-keyboard-response","156","435192","0.0-6.0-0.75","ANBL","2","f","rechts","21","","fixation","","","",""
"1130","img/120_330.png","70","image-keyboard-response","157","436323","0.0-6.0-1.75","ANBL","2","f","rechts","21","","","object","j","120","false"
"null","<div style=""font-size:60px;"">+</div>","null","html-keyboard-response","158","436675","0.0-6.0-0.76","ANBL","2","f","rechts","21","","fixation","","","",""
"1313","img/0_210.png","70","image-keyboard-response","159","437988","0.0-6.0-1.76","ANBL","2","f","rechts","21","","","object","f","0","true"
"null","<div style=""font-size:60px;"">+</div>","null","html-keyboard-response","160","438340","0.0-6.0-0.77","ANBL","2","f","rechts","21","","fixation","","","",""
"2394","img/30_300.png","74","image-keyboard-response","161","440734","0.0-6.0-1.77","ANBL","2","f","rechts","21","","","object","f","30","false"
"null","<div style=""font-size:60px;"">+</div>","null","html-keyboard-response","162","441136","0.0-6.0-0.78","ANBL","2","f","rechts","21","","fixation","","","",""
"1279","img/30_240.png","70","image-keyboard-response","163","442416","0.0-6.0-1.78","ANBL","2","f","rechts","21","","","object","f","30","true"
"null","<div style=""font-size:60px;"">+</div>","null","html-keyboard-response","164","442918","0.0-6.0-0.79","ANBL","2","f","rechts","21","","fixation","","","",""
"1647","img/60_150.png","74","image-keyboard-response","165","444565","0.0-6.0-1.79","ANBL","2","f","rechts","21","","","object","j","60","true"
"null","<div style=""font-size:60px;"">+</div>","null","html-keyboard-response","166","444967","0.0-6.0-0.80","ANBL","2","f","rechts","21","","fixation","","","",""
"2322","img/120_90.png","70","image-keyboard-response","167","447290","0.0-6.0-1.80","ANBL","2","f","rechts","21","","","object","f","120","true"
"null","<div style=""font-size:60px;"">+</div>","null","html-keyboard-response","168","447791","0.0-6.0-0.81","ANBL","2","f","rechts","21","","fixation","","","",""
"1126","img/60_30.png","70","image-keyboard-response","169","448918","0.0-6.0-1.81","ANBL","2","f","rechts","21","","","object","f","60","true"
"null","<div style=""font-size:60px;"">+</div>","null","html-keyboard-response","170","449370","0.0-6.0-0.82","ANBL","2","f","rechts","21","","fixation","","","",""
"2013","img/150_180.png","70","image-keyboard-response","171","451384","0.0-6.0-1.82","ANBL","2","f","rechts","21","","","object","f","150","true"
"null","<div style=""font-size:60px;"">+</div>","null","html-keyboard-response","172","451835","0.0-6.0-0.83","ANBL","2","f","rechts","21","","fixation","","","",""
"2755","img/L90_180.png","74","image-keyboard-response","173","454591","0.0-6.0-1.83","ANBL","2","f","rechts","21","","","object","j","90","true"
"null","<div style=""font-size:60px;"">+</div>","null","html-keyboard-response","174","455043","0.0-6.0-0.84","ANBL","2","f","rechts","21","","fixation","","","",""
"1904","img/L150_180.png","74","image-keyboard-response","175","456948","0.0-6.0-1.84","ANBL","2","f","rechts","21","","","object","j","150","true"
"null","<div style=""font-size:60px;"">+</div>","null","html-keyboard-response","176","457450","0.0-6.0-0.85","ANBL","2","f","rechts","21","","fixation","","","",""
"2425","img/120_150.png","74","image-keyboard-response","177","459875","0.0-6.0-1.85","ANBL","2","f","rechts","21","","","object","j","120","true"
"null","<div style=""font-size:60px;"">+</div>","null","html-keyboard-response","178","460277","0.0-6.0-0.86","ANBL","2","f","rechts","21","","fixation","","","",""
"2382","img/150_240.png","74","image-keyboard-response","179","462660","0.0-6.0-1.86","ANBL","2","f","rechts","21","","","object","j","150","true"
"null","<div style=""font-size:60px;"">+</div>","null","html-keyboard-response","180","463062","0.0-6.0-0.87","ANBL","2","f","rechts","21","","fixation","","","",""
"1533","img/60_270.png","70","image-keyboard-response","181","464595","0.0-6.0-1.87","ANBL","2","f","rechts","21","","","object","f","60","true"
"null","<div style=""font-size:60px;"">+</div>","null","html-keyboard-response","182","464896","0.0-6.0-0.88","ANBL","2","f","rechts","21","","fixation","","","",""
"1659","img/30_180.png","70","image-keyboard-response","183","466557","0.0-6.0-1.88","ANBL","2","f","rechts","21","","","object","f","30","true"
"null","<div style=""font-size:60px;"">+</div>","null","html-keyboard-response","184","467008","0.0-6.0-0.89","ANBL","2","f","rechts","21","","fixation","","","",""
"2136","img/90_150.png","74","image-keyboard-response","185","469145","0.0-6.0-1.89","ANBL","2","f","rechts","21","","","object","j","90","true"
"null","<div style=""font-size:60px;"">+</div>","null","html-keyboard-response","186","469597","0.0-6.0-0.90","ANBL","2","f","rechts","21","","fixation","","","",""
"1885","img/90_120.png","74","image-keyboard-response","187","471483","0.0-6.0-1.90","ANBL","2","f","rechts","21","","","object","j","90","true"
"null","<div style=""font-size:60px;"">+</div>","null","html-keyboard-response","188","471935","0.0-6.0-0.91","ANBL","2","f","rechts","21","","fixation","","","",""
"1188","img/0_120.png","74","image-keyboard-response","189","473124","0.0-6.0-1.91","ANBL","2","f","rechts","21","","","object","j","0","true"
"null","<div style=""font-size:60px;"">+</div>","null","html-keyboard-response","190","473626","0.0-6.0-0.92","ANBL","2","f","rechts","21","","fixation","","","",""
"883","img/30_90.png","74","image-keyboard-response","191","474509","0.0-6.0-1.92","ANBL","2","f","rechts","21","","","object","j","30","true"
"null","<div style=""font-size:60px;"">+</div>","null","html-keyboard-response","192","475011","0.0-6.0-0.93","ANBL","2","f","rechts","21","","fixation","","","",""
"1423","img/120_270.png","74","image-keyboard-response","193","476435","0.0-6.0-1.93","ANBL","2","f","rechts","21","","","object","j","120","true"
"null","<div style=""font-size:60px;"">+</div>","null","html-keyboard-response","194","476887","0.0-6.0-0.94","ANBL","2","f","rechts","21","","fixation","","","",""
"1223","img/30_270.png","70","image-keyboard-response","195","478110","0.0-6.0-1.94","ANBL","2","f","rechts","21","","","object","f","30","true"
"null","<div style=""font-size:60px;"">+</div>","null","html-keyboard-response","196","478412","0.0-6.0-0.95","ANBL","2","f","rechts","21","","fixation","","","",""
"769","img/0_300.png","70","image-keyboard-response","197","479181","0.0-6.0-1.95","ANBL","2","f","rechts","21","","","object","f","0","true"
"null","<div style=""font-size:60px;"">+</div>","null","html-keyboard-response","198","479533","0.0-6.0-0.96","ANBL","2","f","rechts","21","","fixation","","","",""
"1072","img/60_330.png","74","image-keyboard-response","199","480605","0.0-6.0-1.96","ANBL","2","f","rechts","21","","","object","j","60","true"
"null","<div style=""font-size:60px;"">+</div>","null","html-keyboard-response","200","481107","0.0-6.0-0.97","ANBL","2","f","rechts","21","","fixation","","","",""
"820","img/0_30.png","74","image-keyboard-response","201","481927","0.0-6.0-1.97","ANBL","2","f","rechts","21","","","object","j","0","true"
"null","<div style=""font-size:60px;"">+</div>","null","html-keyboard-response","202","482229","0.0-6.0-0.98","ANBL","2","f","rechts","21","","fixation","","","",""
"674","img/0_150.png","74","image-keyboard-response","203","482904","0.0-6.0-1.98","ANBL","2","f","rechts","21","","","object","j","0","true"
"null","<div style=""font-size:60px;"">+</div>","null","html-keyboard-response","204","483356","0.0-6.0-0.99","ANBL","2","f","rechts","21","","fixation","","","",""
"1233","img/150_90.png","70","image-keyboard-response","205","484590","0.0-6.0-1.99","ANBL","2","f","rechts","21","","","object","f","150","true"
"null","<div style=""font-size:60px;"">+</div>","null","html-keyboard-response","206","485092","0.0-6.0-0.100","ANBL","2","f","rechts","21","","fixation","","","",""
"1438","img/L60_180.png","74","image-keyboard-response","207","486531","0.0-6.0-1.100","ANBL","2","f","rechts","21","","","object","j","60","true"
"null","<div style=""font-size:60px;"">+</div>","null","html-keyboard-response","208","486932","0.0-6.0-0.101","ANBL","2","f","rechts","21","","fixation","","","",""
"1808","img/60_180.png","70","image-keyboard-response","209","488742","0.0-6.0-1.101","ANBL","2","f","rechts","21","","","object","f","60","true"
"null","<div style=""font-size:60px;"">+</div>","null","html-keyboard-response","210","489093","0.0-6.0-0.102","ANBL","2","f","rechts","21","","fixation","","","",""
"940","img/0_270.png","70","image-keyboard-response","211","490035","0.0-6.0-1.102","ANBL","2","f","rechts","21","","","object","f","0","true"
"null","<div style=""font-size:60px;"">+</div>","null","html-keyboard-response","212","490436","0.0-6.0-0.103","ANBL","2","f","rechts","21","","fixation","","","",""
"1265","img/150_300.png","74","image-keyboard-response","213","491702","0.0-6.0-1.103","ANBL","2","f","rechts","21","","","object","j","150","true"
"null","<div style=""font-size:60px;"">+</div>","null","html-keyboard-response","214","492204","0.0-6.0-0.104","ANBL","2","f","rechts","21","","fixation","","","",""
"719","img/0_120.png","74","image-keyboard-response","215","492924","0.0-6.0-1.104","ANBL","2","f","rechts","21","","","object","j","0","true"
"null","<div style=""font-size:60px;"">+</div>","null","html-keyboard-response","216","493426","0.0-6.0-0.105","ANBL","2","f","rechts","21","","fixation","","","",""
"972","img/0_210.png","70","image-keyboard-response","217","494398","0.0-6.0-1.105","ANBL","2","f","rechts","21","","","object","f","0","true"
"null","<div style=""font-size:60px;"">+</div>","null","html-keyboard-response","218","494750","0.0-6.0-0.106","ANBL","2","f","rechts","21","","fixation","","","",""
"1967","img/90_240.png","70","image-keyboard-response","219","496717","0.0-6.0-1.106","ANBL","2","f","rechts","21","","","object","f","90","true"
"null","<div style=""font-size:60px;"">+</div>","null","html-keyboard-response","220","497069","0.0-6.0-0.107","ANBL","2","f","rechts","21","","fixation","","","",""
"1931","img/150_180.png","70","image-keyboard-response","221","499000","0.0-6.0-1.107","ANBL","2","f","rechts","21","","","object","f","150","true"
"null","<div style=""font-size:60px;"">+</div>","null","html-keyboard-response","222","499502","0.0-6.0-0.108","ANBL","2","f","rechts","21","","fixation","","","",""
"1307","img/150_300.png","74","image-keyboard-response","223","500809","0.0-6.0-1.108","ANBL","2","f","rechts","21","","","object","j","150","true"
"null","<div style=""font-size:60px;"">+</div>","null","html-keyboard-response","224","501211","0.0-6.0-0.109","ANBL","2","f","rechts","21","","fixation","","","",""
"2291","img/90_120.png","74","image-keyboard-response","225","503502","0.0-6.0-1.109","ANBL","2","f","rechts","21","","","object","j","90","true"
"null","<div style=""font-size:60px;"">+</div>","null","html-keyboard-response","226","503804","0.0-6.0-0.110","ANBL","2","f","rechts","21","","fixation","","","",""
"1383","img/30_240.png","70","image-keyboard-response","227","505188","0.0-6.0-1.110","ANBL","2","f","rechts","21","","","object","f","30","true"
"null","<div style=""font-size:60px;"">+</div>","null","html-keyboard-response","228","505590","0.0-6.0-0.111","ANBL","2","f","rechts","21","","fixation","","","",""
"1760","img/60_90.png","74","image-keyboard-response","229","507351","0.0-6.0-1.111","ANBL","2","f","rechts","21","","","object","j","60","true"
"null","<div style=""font-size:60px;"">+</div>","null","html-keyboard-response","230","507652","0.0-6.0-0.112","ANBL","2","f","rechts","21","","fixation","","","",""
"753","img/0_300.png","70","image-keyboard-response","231","508407","0.0-6.0-1.112","ANBL","2","f","rechts","21","","","object","f","0","true"
"null","<div style=""font-size:60px;"">+</div>","null","html-keyboard-response","232","508758","0.0-6.0-0.113","ANBL","2","f","rechts","21","","fixation","","","",""
"1354","img/60_330.png","74","image-keyboard-response","233","510113","0.0-6.0-1.113","ANBL","2","f","rechts","21","","","object","j","60","true"
"null","<div style=""font-size:60px;"">+</div>","null","html-keyboard-response","234","510565","0.0-6.0-0.114","ANBL","2","f","rechts","21","","fixation","","","",""
"1522","img/90_60.png","70","image-keyboard-response","235","512088","0.0-6.0-1.114","ANBL","2","f","rechts","21","","","object","f","90","true"
"null","<div style=""font-size:60px;"">+</div>","null","html-keyboard-response","236","512590","0.0-6.0-0.115","ANBL","2","f","rechts","21","","fixation","","","",""
"1354","img/150_120.png","70","image-keyboard-response","237","513945","0.0-6.0-1.115","ANBL","2","f","rechts","21","","","object","f","150","true"
"null","<div style=""font-size:60px;"">+</div>","null","html-keyboard-response","238","514397","0.0-6.0-0.116","ANBL","2","f","rechts","21","","fixation","","","",""
"2308","img/120_150.png","74","image-keyboard-response","239","516706","0.0-6.0-1.116","ANBL","2","f","rechts","21","","","object","j","120","true"
"null","<div style=""font-size:60px;"">+</div>","null","html-keyboard-response","240","517158","0.0-6.0-0.117","ANBL","2","f","rechts","21","","fixation","","","",""
"1478","img/150_60.png","70","image-keyboard-response","241","518636","0.0-6.0-1.117","ANBL","2","f","rechts","21","","","object","f","150","true"
"null","<div style=""font-size:60px;"">+</div>","null","html-keyboard-response","242","518938","0.0-6.0-0.118","ANBL","2","f","rechts","21","","fixation","","","",""
"2193","img/L120_180.png","74","image-keyboard-response","243","521131","0.0-6.0-1.118","ANBL","2","f","rechts","21","","","object","j","120","true"
"null","<div style=""font-size:60px;"">+</div>","null","html-keyboard-response","244","521633","0.0-6.0-0.119","ANBL","2","f","rechts","21","","fixation","","","",""
"1075","img/120_330.png","74","image-keyboard-response","245","522708","0.0-6.0-1.119","ANBL","2","f","rechts","21","","","object","j","120","true"
"null","<div style=""font-size:60px;"">+</div>","null","html-keyboard-response","246","523060","0.0-6.0-0.120","ANBL","2","f","rechts","21","","fixation","","","",""
"1879","img/L30_180.png","74","image-keyboard-response","247","524940","0.0-6.0-1.120","ANBL","2","f","rechts","21","","","object","j","30","true"
"null","<div style=""font-size:60px;"">+</div>","null","html-keyboard-response","248","525291","0.0-6.0-0.121","ANBL","2","f","rechts","21","","fixation","","","",""
"1583","img/150_270.png","74","image-keyboard-response","249","526875","0.0-6.0-1.121","ANBL","2","f","rechts","21","","","object","j","150","true"
"null","<div style=""font-size:60px;"">+</div>","null","html-keyboard-response","250","527377","0.0-6.0-0.122","ANBL","2","f","rechts","21","","fixation","","","",""
"1484","img/90_210.png","70","image-keyboard-response","251","528861","0.0-6.0-1.122","ANBL","2","f","rechts","21","","","object","f","90","true"
"null","<div style=""font-size:60px;"">+</div>","null","html-keyboard-response","252","529212","0.0-6.0-0.123","ANBL","2","f","rechts","21","","fixation","","","",""
"1569","img/90_300.png","74","image-keyboard-response","253","530782","0.0-6.0-1.123","ANBL","2","f","rechts","21","","","object","j","90","true"
"null","<div style=""font-size:60px;"">+</div>","null","html-keyboard-response","254","531134","0.0-6.0-0.124","ANBL","2","f","rechts","21","","fixation","","","",""
"1266","img/30_120.png","70","image-keyboard-response","255","532401","0.0-6.0-1.124","ANBL","2","f","rechts","21","","","object","j","30","false"
"null","<div style=""font-size:60px;"">+</div>","null","html-keyboard-response","256","532703","0.0-6.0-0.125","ANBL","2","f","rechts","21","","fixation","","","",""
"2066","img/L150_180.png","74","image-keyboard-response","257","534769","0.0-6.0-1.125","ANBL","2","f","rechts","21","","","object","j","150","true"
"null","<div style=""font-size:60px;"">+</div>","null","html-keyboard-response","258","535171","0.0-6.0-0.126","ANBL","2","f","rechts","21","","fixation","","","",""
"1242","img/0_330.png","70","image-keyboard-response","259","536414","0.0-6.0-1.126","ANBL","2","f","rechts","21","","","object","f","0","true"
"null","<div style=""font-size:60px;"">+</div>","null","html-keyboard-response","260","536915","0.0-6.0-0.127","ANBL","2","f","rechts","21","","fixation","","","",""
"2730","img/90_150.png","74","image-keyboard-response","261","539645","0.0-6.0-1.127","ANBL","2","f","rechts","21","","","object","j","90","true"
"null","<div style=""font-size:60px;"">+</div>","null","html-keyboard-response","262","540097","0.0-6.0-0.128","ANBL","2","f","rechts","21","","fixation","","","",""
"1467","img/60_210.png","70","image-keyboard-response","263","541564","0.0-6.0-1.128","ANBL","2","f","rechts","21","","","object","f","60","true"
"null","<div style=""font-size:60px;"">+</div>","null","html-keyboard-response","264","541916","0.0-6.0-0.129","ANBL","2","f","rechts","21","","fixation","","","",""
"712","img/0_150.png","74","image-keyboard-response","265","542629","0.0-6.0-1.129","ANBL","2","f","rechts","21","","","object","j","0","true"
"null","<div style=""font-size:60px;"">+</div>","null","html-keyboard-response","266","543080","0.0-6.0-0.130","ANBL","2","f","rechts","21","","fixation","","","",""
"1136","img/120_30.png","70","image-keyboard-response","267","544218","0.0-6.0-1.130","ANBL","2","f","rechts","21","","","object","f","120","true"
"null","<div style=""font-size:60px;"">+</div>","null","html-keyboard-response","268","544620","0.0-6.0-0.131","ANBL","2","f","rechts","21","","fixation","","","",""
"686","img/0_240.png","70","image-keyboard-response","269","545306","0.0-6.0-1.131","ANBL","2","f","rechts","21","","","object","f","0","true"
"null","<div style=""font-size:60px;"">+</div>","null","html-keyboard-response","270","545708","0.0-6.0-0.132","ANBL","2","f","rechts","21","","fixation","","","",""
"796","img/90_30.png","70","image-keyboard-response","271","546505","0.0-6.0-1.132","ANBL","2","f","rechts","21","","","object","f","90","true"
"null","<div style=""font-size:60px;"">+</div>","null","html-keyboard-response","272","547006","0.0-6.0-0.133","ANBL","2","f","rechts","21","","fixation","","","",""
"1458","img/30_270.png","74","image-keyboard-response","273","548466","0.0-6.0-1.133","ANBL","2","f","rechts","21","","","object","f","30","false"
"null","<div style=""font-size:60px;"">+</div>","null","html-keyboard-response","274","548767","0.0-6.0-0.134","ANBL","2","f","rechts","21","","fixation","","","",""
"2270","img/60_150.png","74","image-keyboard-response","275","551038","0.0-6.0-1.134","ANBL","2","f","rechts","21","","","object","j","60","true"
"null","<div style=""font-size:60px;"">+</div>","null","html-keyboard-response","276","551390","0.0-6.0-0.135","ANBL","2","f","rechts","21","","fixation","","","",""
"665","img/0_30.png","74","image-keyboard-response","277","552056","0.0-6.0-1.135","ANBL","2","f","rechts","21","","","object","j","0","true"
"null","<div style=""font-size:60px;"">+</div>","null","html-keyboard-response","278","552558","0.0-6.0-0.136","ANBL","2","f","rechts","21","","fixation","","","",""
"1120","img/30_60.png","74","image-keyboard-response","279","553679","0.0-6.0-1.136","ANBL","2","f","rechts","21","","","object","j","30","true"
"null","<div style=""font-size:60px;"">+</div>","null","html-keyboard-response","280","554181","0.0-6.0-0.137","ANBL","2","f","rechts","21","","fixation","","","",""
"1421","img/30_180.png","70","image-keyboard-response","281","555603","0.0-6.0-1.137","ANBL","2","f","rechts","21","","","object","f","30","true"
"null","<div style=""font-size:60px;"">+</div>","null","html-keyboard-response","282","556005","0.0-6.0-0.138","ANBL","2","f","rechts","21","","fixation","","","",""
"1638","img/120_270.png","74","image-keyboard-response","283","557643","0.0-6.0-1.138","ANBL","2","f","rechts","21","","","object","j","120","true"
"null","<div style=""font-size:60px;"">+</div>","null","html-keyboard-response","284","558145","0.0-6.0-0.139","ANBL","2","f","rechts","21","","fixation","","","",""
"864","img/120_210.png","70","image-keyboard-response","285","559010","0.0-6.0-1.139","ANBL","2","f","rechts","21","","","object","f","120","true"
"null","<div style=""font-size:60px;"">+</div>","null","html-keyboard-response","286","559362","0.0-6.0-0.140","ANBL","2","f","rechts","21","","fixation","","","",""
"2153","img/90_180.png","70","image-keyboard-response","287","561516","0.0-6.0-1.140","ANBL","2","f","rechts","21","","","object","f","90","true"
"null","<div style=""font-size:60px;"">+</div>","null","html-keyboard-response","288","562018","0.0-6.0-0.141","ANBL","2","f","rechts","21","","fixation","","","",""
"747","img/0_90.png","74","image-keyboard-response","289","562765","0.0-6.0-1.141","ANBL","2","f","rechts","21","","","object","j","0","true"
"null","<div style=""font-size:60px;"">+</div>","null","html-keyboard-response","290","563217","0.0-6.0-0.142","ANBL","2","f","rechts","21","","fixation","","","",""
"884","img/60_30.png","70","image-keyboard-response","291","564102","0.0-6.0-1.142","ANBL","2","f","rechts","21","","","object","f","60","true"
"null","<div style=""font-size:60px;"">+</div>","null","html-keyboard-response","292","564453","0.0-6.0-0.143","ANBL","2","f","rechts","21","","fixation","","","",""
"1003","img/90_330.png","74","image-keyboard-response","293","565457","0.0-6.0-1.143","ANBL","2","f","rechts","21","","","object","j","90","true"
"null","<div style=""font-size:60px;"">+</div>","null","html-keyboard-response","294","565959","0.0-6.0-0.144","ANBL","2","f","rechts","21","","fixation","","","",""
"2100","img/L60_180.png","74","image-keyboard-response","295","568061","0.0-6.0-1.144","ANBL","2","f","rechts","21","","","object","j","60","true"
"null","<div style=""font-size:60px;"">+</div>","null","html-keyboard-response","296","568562","0.0-6.0-0.145","ANBL","2","f","rechts","21","","fixation","","","",""
"790","img/0_60.png","74","image-keyboard-response","297","569353","0.0-6.0-1.145","ANBL","2","f","rechts","21","","","object","j","0","true"
"null","<div style=""font-size:60px;"">+</div>","null","html-keyboard-response","298","569805","0.0-6.0-0.146","ANBL","2","f","rechts","21","","fixation","","","",""
"1484","img/150_90.png","70","image-keyboard-response","299","571290","0.0-6.0-1.146","ANBL","2","f","rechts","21","","","object","f","150","true"
"null","<div style=""font-size:60px;"">+</div>","null","html-keyboard-response","300","571692","0.0-6.0-0.147","ANBL","2","f","rechts","21","","fixation","","","",""
"1294","img/L90_180.png","74","image-keyboard-response","301","572986","0.0-6.0-1.147","ANBL","2","f","rechts","21","","","object","j","90","true"
"null","<div style=""font-size:60px;"">+</div>","null","html-keyboard-response","302","573388","0.0-6.0-0.148","ANBL","2","f","rechts","21","","fixation","","","",""
"1042","img/120_180.png","70","image-keyboard-response","303","574430","0.0-6.0-1.148","ANBL","2","f","rechts","21","","","object","f","120","true"
"null","<div style=""font-size:60px;"">+</div>","null","html-keyboard-response","304","574732","0.0-6.0-0.149","ANBL","2","f","rechts","21","","fixation","","","",""
"1570","img/150_240.png","74","image-keyboard-response","305","576303","0.0-6.0-1.149","ANBL","2","f","rechts","21","","","object","j","150","true"
"null","<div style=""font-size:60px;"">+</div>","null","html-keyboard-response","306","576655","0.0-6.0-0.150","ANBL","2","f","rechts","21","","fixation","","","",""
"1588","img/120_90.png","70","image-keyboard-response","307","578243","0.0-6.0-1.150","ANBL","2","f","rechts","21","","","object","f","120","true"
"null","<div style=""font-size:60px;"">+</div>","null","html-keyboard-response","308","578645","0.0-6.0-0.151","ANBL","2","f","rechts","21","","fixation","","","",""
"1298","img/30_300.png","74","image-keyboard-response","309","579943","0.0-6.0-1.151","ANBL","2","f","rechts","21","","","object","f","30","false"
"null","<div style=""font-size:60px;"">+</div>","null","html-keyboard-response","310","580245","0.0-6.0-0.152","ANBL","2","f","rechts","21","","fixation","","","",""
"2178","img/60_180.png","70","image-keyboard-response","311","582423","0.0-6.0-1.152","ANBL","2","f","rechts","21","","","object","f","60","true"
"null","<div style=""font-size:60px;"">+</div>","null","html-keyboard-response","312","582875","0.0-6.0-0.153","ANBL","2","f","rechts","21","","fixation","","","",""
"1761","img/60_270.png","74","image-keyboard-response","313","584637","0.0-6.0-1.153","ANBL","2","f","rechts","21","","","object","f","60","false"
"null","<div style=""font-size:60px;"">+</div>","null","html-keyboard-response","314","584988","0.0-6.0-0.154","ANBL","2","f","rechts","21","","fixation","","","",""
"924","img/0_270.png","70","image-keyboard-response","315","585914","0.0-6.0-1.154","ANBL","2","f","rechts","21","","","object","f","0","true"
"null","<div style=""font-size:60px;"">+</div>","null","html-keyboard-response","316","586415","0.0-6.0-0.155","ANBL","2","f","rechts","21","","fixation","","","",""
"1563","img/30_90.png","74","image-keyboard-response","317","587980","0.0-6.0-1.155","ANBL","2","f","rechts","21","","","object","j","30","true"
"null","<div style=""font-size:60px;"">+</div>","null","html-keyboard-response","318","588431","0.0-6.0-0.156","ANBL","2","f","rechts","21","","fixation","","","",""
"1315","img/150_90.png","70","image-keyboard-response","319","589747","0.0-6.0-1.156","ANBL","2","f","rechts","21","","","object","f","150","true"
"null","<div style=""font-size:60px;"">+</div>","null","html-keyboard-response","320","590199","0.0-6.0-0.157","ANBL","2","f","rechts","21","","fixation","","","",""
"691","img/0_300.png","70","image-keyboard-response","321","590891","0.0-6.0-1.157","ANBL","2","f","rechts","21","","","object","f","0","true"
"null","<div style=""font-size:60px;"">+</div>","null","html-keyboard-response","322","591243","0.0-6.0-0.158","ANBL","2","f","rechts","21","","fixation","","","",""
"2107","img/30_240.png","74","image-keyboard-response","323","593351","0.0-6.0-1.158","ANBL","2","f","rechts","21","","","object","f","30","false"
"null","<div style=""font-size:60px;"">+</div>","null","html-keyboard-response","324","593703","0.0-6.0-0.159","ANBL","2","f","rechts","21","","fixation","","","",""
"1745","img/60_150.png","74","image-keyboard-response","325","595449","0.0-6.0-1.159","ANBL","2","f","rechts","21","","","object","j","60","true"
"null","<div style=""font-size:60px;"">+</div>","null","html-keyboard-response","326","595951","0.0-6.0-0.160","ANBL","2","f","rechts","21","","fixation","","","",""
"1091","img/30_120.png","74","image-keyboard-response","327","597042","0.0-6.0-1.160","ANBL","2","f","rechts","21","","","object","j","30","true"
"null","<div style=""font-size:60px;"">+</div>","null","html-keyboard-response","328","597494","0.0-6.0-0.161","ANBL","2","f","rechts","21","","fixation","","","",""
"885","img/0_120.png","74","image-keyboard-response","329","598380","0.0-6.0-1.161","ANBL","2","f","rechts","21","","","object","j","0","true"
"null","<div style=""font-size:60px;"">+</div>","null","html-keyboard-response","330","598682","0.0-6.0-0.162","ANBL","2","f","rechts","21","","fixation","","","",""
"1448","img/90_330.png","74","image-keyboard-response","331","600130","0.0-6.0-1.162","ANBL","2","f","rechts","21","","","object","j","90","true"
"null","<div style=""font-size:60px;"">+</div>","null","html-keyboard-response","332","600430","0.0-6.0-0.163","ANBL","2","f","rechts","21","","fixation","","","",""
"1550","img/L90_180.png","74","image-keyboard-response","333","601982","0.0-6.0-1.163","ANBL","2","f","rechts","21","","","object","j","90","true"
"null","<div style=""font-size:60px;"">+</div>","null","html-keyboard-response","334","602333","0.0-6.0-0.164","ANBL","2","f","rechts","21","","fixation","","","",""
"1492","img/90_120.png","74","image-keyboard-response","335","603826","0.0-6.0-1.164","ANBL","2","f","rechts","21","","","object","j","90","true"
"null","<div style=""font-size:60px;"">+</div>","null","html-keyboard-response","336","604128","0.0-6.0-0.165","ANBL","2","f","rechts","21","","fixation","","","",""
"835","img/0_210.png","70","image-keyboard-response","337","604964","0.0-6.0-1.165","ANBL","2","f","rechts","21","","","object","f","0","true"
"null","<div style=""font-size:60px;"">+</div>","null","html-keyboard-response","338","605315","0.0-6.0-0.166","ANBL","2","f","rechts","21","","fixation","","","",""
"1640","img/90_60.png","70","image-keyboard-response","339","606957","0.0-6.0-1.166","ANBL","2","f","rechts","21","","","object","f","90","true"
"null","<div style=""font-size:60px;"">+</div>","null","html-keyboard-response","340","607358","0.0-6.0-0.167","ANBL","2","f","rechts","21","","fixation","","","",""
"1828","img/90_150.png","74","image-keyboard-response","341","609187","0.0-6.0-1.167","ANBL","2","f","rechts","21","","","object","j","90","true"
"null","<div style=""font-size:60px;"">+</div>","null","html-keyboard-response","342","609639","0.0-6.0-0.168","ANBL","2","f","rechts","21","","fixation","","","",""
"882","img/0_90.png","74","image-keyboard-response","343","610522","0.0-6.0-1.168","ANBL","2","f","rechts","21","","","object","j","0","true"
"null","<div style=""font-size:60px;"">+</div>","null","html-keyboard-response","344","611024","0.0-6.0-0.169","ANBL","2","f","rechts","21","","fixation","","","",""
"1262","img/90_30.png","70","image-keyboard-response","345","612287","0.0-6.0-1.169","ANBL","2","f","rechts","21","","","object","f","90","true"
"null","<div style=""font-size:60px;"">+</div>","null","html-keyboard-response","346","612589","0.0-6.0-0.170","ANBL","2","f","rechts","21","","fixation","","","",""
"1425","img/120_330.png","74","image-keyboard-response","347","614015","0.0-6.0-1.170","ANBL","2","f","rechts","21","","","object","j","120","true"
"null","<div style=""font-size:60px;"">+</div>","null","html-keyboard-response","348","614317","0.0-6.0-0.171","ANBL","2","f","rechts","21","","fixation","","","",""
"1890","img/150_180.png","70","image-keyboard-response","349","616208","0.0-6.0-1.171","ANBL","2","f","rechts","21","","","object","f","150","true"
"null","<div style=""font-size:60px;"">+</div>","null","html-keyboard-response","350","616710","0.0-6.0-0.172","ANBL","2","f","rechts","21","","fixation","","","",""
"1565","img/90_210.png","70","image-keyboard-response","351","618276","0.0-6.0-1.172","ANBL","2","f","rechts","21","","","object","f","90","true"
"null","<div style=""font-size:60px;"">+</div>","null","html-keyboard-response","352","618578","0.0-6.0-0.173","ANBL","2","f","rechts","21","","fixation","","","",""
"2250","img/120_150.png","74","image-keyboard-response","353","620828","0.0-6.0-1.173","ANBL","2","f","rechts","21","","","object","j","120","true"
"null","<div style=""font-size:60px;"">+</div>","null","html-keyboard-response","354","621130","0.0-6.0-0.174","ANBL","2","f","rechts","21","","fixation","","","",""
"1214","img/120_30.png","70","image-keyboard-response","355","622345","0.0-6.0-1.174","ANBL","2","f","rechts","21","","","object","f","120","true"
"null","<div style=""font-size:60px;"">+</div>","null","html-keyboard-response","356","622696","0.0-6.0-0.175","ANBL","2","f","rechts","21","","fixation","","","",""
"1478","img/150_60.png","70","image-keyboard-response","357","624175","0.0-6.0-1.175","ANBL","2","f","rechts","21","","","object","f","150","true"
"null","<div style=""font-size:60px;"">+</div>","null","html-keyboard-response","358","624676","0.0-6.0-0.176","ANBL","2","f","rechts","21","","fixation","","","",""
"795","img/0_240.png","70","image-keyboard-response","359","625472","0.0-6.0-1.176","ANBL","2","f","rechts","21","","","object","f","0","true"
"null","<div style=""font-size:60px;"">+</div>","null","html-keyboard-response","360","625773","0.0-6.0-0.177","ANBL","2","f","rechts","21","","fixation","","","",""
"1812","img/L120_180.png","74","image-keyboard-response","361","627586","0.0-6.0-1.177","ANBL","2","f","rechts","21","","","object","j","120","true"
"null","<div style=""font-size:60px;"">+</div>","null","html-keyboard-response","362","628088","0.0-6.0-0.178","ANBL","2","f","rechts","21","","fixation","","","",""
"2069","img/90_240.png","70","image-keyboard-response","363","630159","0.0-6.0-1.178","ANBL","2","f","rechts","21","","","object","f","90","true"
"null","<div style=""font-size:60px;"">+</div>","null","html-keyboard-response","364","630460","0.0-6.0-0.179","ANBL","2","f","rechts","21","","fixation","","","",""
"1750","img/120_210.png","70","image-keyboard-response","365","632211","0.0-6.0-1.179","ANBL","2","f","rechts","21","","","object","f","120","true"
"null","<div style=""font-size:60px;"">+</div>","null","html-keyboard-response","366","632563","0.0-6.0-0.180","ANBL","2","f","rechts","21","","fixation","","","",""
"1701","img/30_300.png","70","image-keyboard-response","367","634265","0.0-6.0-1.180","ANBL","2","f","rechts","21","","","object","f","30","true"
"null","<div style=""font-size:60px;"">+</div>","null","html-keyboard-response","368","634767","0.0-6.0-0.181","ANBL","2","f","rechts","21","","fixation","","","",""
"1534","img/150_300.png","74","image-keyboard-response","369","636302","0.0-6.0-1.181","ANBL","2","f","rechts","21","","","object","j","150","true"
"null","<div style=""font-size:60px;"">+</div>","null","html-keyboard-response","370","636754","0.0-6.0-0.182","ANBL","2","f","rechts","21","","fixation","","","",""
"1077","img/60_210.png","70","image-keyboard-response","371","637831","0.0-6.0-1.182","ANBL","2","f","rechts","21","","","object","f","60","true"
"null","<div style=""font-size:60px;"">+</div>","null","html-keyboard-response","372","638333","0.0-6.0-0.183","ANBL","2","f","rechts","21","","fixation","","","",""
"1536","img/60_90.png","70","image-keyboard-response","373","639869","0.0-6.0-1.183","ANBL","2","f","rechts","21","","","object","j","60","false"
"null","<div style=""font-size:60px;"">+</div>","null","html-keyboard-response","374","640220","0.0-6.0-0.184","ANBL","2","f","rechts","21","","fixation","","","",""
"835","img/0_60.png","74","image-keyboard-response","375","641056","0.0-6.0-1.184","ANBL","2","f","rechts","21","","","object","j","0","true"
"null","<div style=""font-size:60px;"">+</div>","null","html-keyboard-response","376","641357","0.0-6.0-0.185","ANBL","2","f","rechts","21","","fixation","","","",""
"1288","img/30_90.png","74","image-keyboard-response","377","642646","0.0-6.0-1.185","ANBL","2","f","rechts","21","","","object","j","30","true"
"null","<div style=""font-size:60px;"">+</div>","null","html-keyboard-response","378","643048","0.0-6.0-0.186","ANBL","2","f","rechts","21","","fixation","","","",""
"781","img/0_330.png","70","image-keyboard-response","379","643830","0.0-6.0-1.186","ANBL","2","f","rechts","21","","","object","f","0","true"
"null","<div style=""font-size:60px;"">+</div>","null","html-keyboard-response","380","644282","0.0-6.0-0.187","ANBL","2","f","rechts","21","","fixation","","","",""
"1125","img/120_180.png","70","image-keyboard-response","381","645408","0.0-6.0-1.187","ANBL","2","f","rechts","21","","","object","f","120","true"
"null","<div style=""font-size:60px;"">+</div>","null","html-keyboard-response","382","645809","0.0-6.0-0.188","ANBL","2","f","rechts","21","","fixation","","","",""
"945","img/60_30.png","70","image-keyboard-response","383","646756","0.0-6.0-1.188","ANBL","2","f","rechts","21","","","object","f","60","true"
"null","<div style=""font-size:60px;"">+</div>","null","html-keyboard-response","384","647108","0.0-6.0-0.189","ANBL","2","f","rechts","21","","fixation","","","",""
"1698","img/30_180.png","70","image-keyboard-response","385","648808","0.0-6.0-1.189","ANBL","2","f","rechts","21","","","object","f","30","true"
"null","<div style=""font-size:60px;"">+</div>","null","html-keyboard-response","386","649159","0.0-6.0-0.190","ANBL","2","f","rechts","21","","fixation","","","",""
"1162","img/L60_180.png","74","image-keyboard-response","387","650322","0.0-6.0-1.190","ANBL","2","f","rechts","21","","","object","j","60","true"
"null","<div style=""font-size:60px;"">+</div>","null","html-keyboard-response","388","650774","0.0-6.0-0.191","ANBL","2","f","rechts","21","","fixation","","","",""
"1641","img/120_90.png","74","image-keyboard-response","389","652416","0.0-6.0-1.191","ANBL","2","f","rechts","21","","","object","f","120","false"
"null","<div style=""font-size:60px;"">+</div>","null","html-keyboard-response","390","652818","0.0-6.0-0.192","ANBL","2","f","rechts","21","","fixation","","","",""
"1206","img/90_300.png","70","image-keyboard-response","391","654025","0.0-6.0-1.192","ANBL","2","f","rechts","21","","","object","j","90","false"
"null","<div style=""font-size:60px;"">+</div>","null","html-keyboard-response","392","654326","0.0-6.0-0.193","ANBL","2","f","rechts","21","","fixation","","","",""
"1155","img/30_60.png","70","image-keyboard-response","393","655482","0.0-6.0-1.193","ANBL","2","f","rechts","21","","","object","j","30","false"
"null","<div style=""font-size:60px;"">+</div>","null","html-keyboard-response","394","655984","0.0-6.0-0.194","ANBL","2","f","rechts","21","","fixation","","","",""
"1486","img/120_270.png","74","image-keyboard-response","395","657470","0.0-6.0-1.194","ANBL","2","f","rechts","21","","","object","j","120","true"
"null","<div style=""font-size:60px;"">+</div>","null","html-keyboard-response","396","657922","0.0-6.0-0.195","ANBL","2","f","rechts","21","","fixation","","","",""
"1071","img/60_180.png","70","image-keyboard-response","397","658994","0.0-6.0-1.195","ANBL","2","f","rechts","21","","","object","f","60","true"
"null","<div style=""font-size:60px;"">+</div>","null","html-keyboard-response","398","659395","0.0-6.0-0.196","ANBL","2","f","rechts","21","","fixation","","","",""
"1221","img/60_270.png","70","image-keyboard-response","399","660617","0.0-6.0-1.196","ANBL","2","f","rechts","21","","","object","f","60","true"
"null","<div style=""font-size:60px;"">+</div>","null","html-keyboard-response","400","660918","0.0-6.0-0.197","ANBL","2","f","rechts","21","","fixation","","","",""
"1170","img/30_270.png","70","image-keyboard-response","401","662089","0.0-6.0-1.197","ANBL","2","f","rechts","21","","","object","f","30","true"
"null","<div style=""font-size:60px;"">+</div>","null","html-keyboard-response","402","662590","0.0-6.0-0.198","ANBL","2","f","rechts","21","","fixation","","","",""
"1218","img/60_330.png","74","image-keyboard-response","403","663809","0.0-6.0-1.198","ANBL","2","f","rechts","21","","","object","j","60","true"
"null","<div style=""font-size:60px;"">+</div>","null","html-keyboard-response","404","664211","0.0-6.0-0.199","ANBL","2","f","rechts","21","","fixation","","","",""
"1626","img/L150_180.png","74","image-keyboard-response","405","665838","0.0-6.0-1.199","ANBL","2","f","rechts","21","","","object","j","150","true"
"null","<div style=""font-size:60px;"">+</div>","null","html-keyboard-response","406","666240","0.0-6.0-0.200","ANBL","2","f","rechts","21","","fixation","","","",""
"822","img/0_150.png","74","image-keyboard-response","407","667063","0.0-6.0-1.200","ANBL","2","f","rechts","21","","","object","j","0","true"
"null","<div style=""font-size:60px;"">+</div>","null","html-keyboard-response","408","667514","0.0-6.0-0.201","ANBL","2","f","rechts","21","","fixation","","","",""
"705","img/0_30.png","74","image-keyboard-response","409","668220","0.0-6.0-1.201","ANBL","2","f","rechts","21","","","object","j","0","true"
"null","<div style=""font-size:60px;"">+</div>","null","html-keyboard-response","410","668622","0.0-6.0-0.202","ANBL","2","f","rechts","21","","fixation","","","",""
"776","img/0_270.png","70","image-keyboard-response","411","669399","0.0-6.0-1.202","ANBL","2","f","rechts","21","","","object","f","0","true"
"null","<div style=""font-size:60px;"">+</div>","null","html-keyboard-response","412","669901","0.0-6.0-0.203","ANBL","2","f","rechts","21","","fixation","","","",""
"1182","img/90_180.png","70","image-keyboard-response","413","671084","0.0-6.0-1.203","ANBL","2","f","rechts","21","","","object","f","90","true"
"null","<div style=""font-size:60px;"">+</div>","null","html-keyboard-response","414","671436","0.0-6.0-0.204","ANBL","2","f","rechts","21","","fixation","","","",""
"1377","img/L30_180.png","74","image-keyboard-response","415","672814","0.0-6.0-1.204","ANBL","2","f","rechts","21","","","object","j","30","true"
"null","<div style=""font-size:60px;"">+</div>","null","html-keyboard-response","416","673266","0.0-6.0-0.205","ANBL","2","f","rechts","21","","fixation","","","",""
"1372","img/150_240.png","74","image-keyboard-response","417","674639","0.0-6.0-1.205","ANBL","2","f","rechts","21","","","object","j","150","true"
"null","<div style=""font-size:60px;"">+</div>","null","html-keyboard-response","418","675091","0.0-6.0-0.206","ANBL","2","f","rechts","21","","fixation","","","",""
"977","img/150_270.png","74","image-keyboard-response","419","676069","0.0-6.0-1.206","ANBL","2","f","rechts","21","","","object","j","150","true"
"null","<div style=""font-size:60px;"">+</div>","null","html-keyboard-response","420","676521","0.0-6.0-0.207","ANBL","2","f","rechts","21","","fixation","","","",""
"1530","img/150_120.png","70","image-keyboard-response","421","678052","0.0-6.0-1.207","ANBL","2","f","rechts","21","","","object","f","150","true"
"10421","<p>Du hast in 86% der Versuche korrekt entschieden.</p><p>Deine durchschnittliche Reaktionszeit war  1369ms.</p><p>Dr&uuml;cke eine beliebige Taste, um die Session zu beenden. Vielen Dank!</p>","74","html-keyboard-response","422","688475","0.0-7.0","ANBL","2","f","rechts","21","","","","","",""
