"rt","stimulus","key_press","trial_type","trial_index","time_elapsed","internal_node_id","subject","session","sex","handedness","age","responses","test_part","condition","correct_response","angle","correct"
"1679","<p>Mental Rotation Experiment.</p> <p>Dr&uuml;cke eine beliebige Taste, um anzufangen.</p>","72","html-keyboard-response","0","1680","0.0-0.0","ANBL","3","f","rechts","21","","","","","",""
"11107","","","survey-text","1","12788","0.0-1.0","ANBL","3","f","rechts","21","{""Q0"":""ANBL""}","","","","",""
"2810","","","survey-text","2","15598","0.0-2.0","ANBL","3","f","rechts","21","{""Q0"":""3""}","","","","",""
"3103","","","survey-multi-choice","3","18703","0.0-3.0","ANBL","3","f","rechts","21","{""Q0"":""f"",""Q1"":""rechts""}","","","","",""
"2889","","","survey-text","4","21594","0.0-4.0","ANBL","3","f","rechts","21","{""Q0"":""21""}","","","","",""
"260600","<p>Stell dir vor, dass du vor einem runden Tisch stehst, auf dem sich ein blauer Ball am Tischrand befindet. Entlang des Tischrands ist jeweils ein verschieden langer Pfeil. Nun bleibst du an deinem Platz vor dem Tisch und rotierst den Tisch entlang des Pfeils (gleiche Richtung und Länge). </p> <img src='img/30_180.png'></img> <br><p> Nachdem du diese (vorgestellte) Rotation durchgef&uuml;hrt hast, schau in Richtung der Tischmitte, und entscheide dann, ob der Ball links oder rechts von dir liegt.</p> <p>Dr&uuml;cke die <strong>'f'</strong>-Taste f&uuml;r links, die <strong>'j'</strong>-Taste f&uuml;r rechts.</p><br><p> Das Bild wird jeweils 1 Sekunde lang pr&auml;sentiert. Du hast 3 Sekunden Zeit eine Entscheidung zu treffen.</p>","74","html-keyboard-response","5","282195","0.0-5.0","ANBL","3","f","rechts","21","","","","","",""
"null","<div style=""font-size:60px;"">+</div>","null","html-keyboard-response","6","283597","0.0-6.0-0.0","ANBL","3","f","rechts","21","","fixation","","","",""
"1067","img/60_330.png","74","image-keyboard-response","7","284665","0.0-6.0-1.0","ANBL","3","f","rechts","21","","","object","j","60","true"
"null","<div style=""font-size:60px;"">+</div>","null","html-keyboard-response","8","285167","0.0-6.0-0.1","ANBL","3","f","rechts","21","","fixation","","","",""
"718","img/0_330.png","70","image-keyboard-response","9","285886","0.0-6.0-1.1","ANBL","3","f","rechts","21","","","object","f","0","true"
"null","<div style=""font-size:60px;"">+</div>","null","html-keyboard-response","10","286388","0.0-6.0-0.2","ANBL","3","f","rechts","21","","fixation","","","",""
"846","img/L30_180.png","74","image-keyboard-response","11","287236","0.0-6.0-1.2","ANBL","3","f","rechts","21","","","object","j","30","true"
"null","<div style=""font-size:60px;"">+</div>","null","html-keyboard-response","12","287587","0.0-6.0-0.3","ANBL","3","f","rechts","21","","fixation","","","",""
"1181","img/L120_180.png","74","image-keyboard-response","13","288769","0.0-6.0-1.3","ANBL","3","f","rechts","21","","","object","j","120","true"
"null","<div style=""font-size:60px;"">+</div>","null","html-keyboard-response","14","289121","0.0-6.0-0.4","ANBL","3","f","rechts","21","","fixation","","","",""
"766","img/90_30.png","70","image-keyboard-response","15","289889","0.0-6.0-1.4","ANBL","3","f","rechts","21","","","object","f","90","true"
"null","<div style=""font-size:60px;"">+</div>","null","html-keyboard-response","16","290190","0.0-6.0-0.5","ANBL","3","f","rechts","21","","fixation","","","",""
"1817","img/90_150.png","74","image-keyboard-response","17","292009","0.0-6.0-1.5","ANBL","3","f","rechts","21","","","object","j","90","true"
"null","<div style=""font-size:60px;"">+</div>","null","html-keyboard-response","18","292360","0.0-6.0-0.6","ANBL","3","f","rechts","21","","fixation","","","",""
"1069","img/60_210.png","70","image-keyboard-response","19","293430","0.0-6.0-1.6","ANBL","3","f","rechts","21","","","object","f","60","true"
"null","<div style=""font-size:60px;"">+</div>","null","html-keyboard-response","20","293882","0.0-6.0-0.7","ANBL","3","f","rechts","21","","fixation","","","",""
"843","img/60_270.png","70","image-keyboard-response","21","294726","0.0-6.0-1.7","ANBL","3","f","rechts","21","","","object","f","60","true"
"null","<div style=""font-size:60px;"">+</div>","null","html-keyboard-response","22","295228","0.0-6.0-0.8","ANBL","3","f","rechts","21","","fixation","","","",""
"834","img/0_270.png","70","image-keyboard-response","23","296063","0.0-6.0-1.8","ANBL","3","f","rechts","21","","","object","f","0","true"
"null","<div style=""font-size:60px;"">+</div>","null","html-keyboard-response","24","296465","0.0-6.0-0.9","ANBL","3","f","rechts","21","","fixation","","","",""
"889","img/90_330.png","74","image-keyboard-response","25","297355","0.0-6.0-1.9","ANBL","3","f","rechts","21","","","object","j","90","true"
"null","<div style=""font-size:60px;"">+</div>","null","html-keyboard-response","26","297757","0.0-6.0-0.10","ANBL","3","f","rechts","21","","fixation","","","",""
"1094","img/30_120.png","74","image-keyboard-response","27","298853","0.0-6.0-1.10","ANBL","3","f","rechts","21","","","object","j","30","true"
"null","<div style=""font-size:60px;"">+</div>","null","html-keyboard-response","28","299254","0.0-6.0-0.11","ANBL","3","f","rechts","21","","fixation","","","",""
"1180","img/150_270.png","70","image-keyboard-response","29","300436","0.0-6.0-1.11","ANBL","3","f","rechts","21","","","object","j","150","false"
"null","<div style=""font-size:60px;"">+</div>","null","html-keyboard-response","30","300938","0.0-6.0-0.12","ANBL","3","f","rechts","21","","fixation","","","",""
"1169","img/60_30.png","70","image-keyboard-response","31","302107","0.0-6.0-1.12","ANBL","3","f","rechts","21","","","object","f","60","true"
"null","<div style=""font-size:60px;"">+</div>","null","html-keyboard-response","32","302559","0.0-6.0-0.13","ANBL","3","f","rechts","21","","fixation","","","",""
"1798","img/90_240.png","70","image-keyboard-response","33","304358","0.0-6.0-1.13","ANBL","3","f","rechts","21","","","object","f","90","true"
"null","<div style=""font-size:60px;"">+</div>","null","html-keyboard-response","34","304709","0.0-6.0-0.14","ANBL","3","f","rechts","21","","fixation","","","",""
"1427","img/90_180.png","70","image-keyboard-response","35","306137","0.0-6.0-1.14","ANBL","3","f","rechts","21","","","object","f","90","true"
"null","<div style=""font-size:60px;"">+</div>","null","html-keyboard-response","36","306639","0.0-6.0-0.15","ANBL","3","f","rechts","21","","fixation","","","",""
"1145","img/60_90.png","74","image-keyboard-response","37","307785","0.0-6.0-1.15","ANBL","3","f","rechts","21","","","object","j","60","true"
"null","<div style=""font-size:60px;"">+</div>","null","html-keyboard-response","38","308187","0.0-6.0-0.16","ANBL","3","f","rechts","21","","fixation","","","",""
"1239","img/L90_180.png","74","image-keyboard-response","39","309427","0.0-6.0-1.16","ANBL","3","f","rechts","21","","","object","j","90","true"
"null","<div style=""font-size:60px;"">+</div>","null","html-keyboard-response","40","309779","0.0-6.0-0.17","ANBL","3","f","rechts","21","","fixation","","","",""
"1057","img/120_30.png","70","image-keyboard-response","41","310837","0.0-6.0-1.17","ANBL","3","f","rechts","21","","","object","f","120","true"
"null","<div style=""font-size:60px;"">+</div>","null","html-keyboard-response","42","311239","0.0-6.0-0.18","ANBL","3","f","rechts","21","","fixation","","","",""
"743","img/0_210.png","70","image-keyboard-response","43","311982","0.0-6.0-1.18","ANBL","3","f","rechts","21","","","object","f","0","true"
"null","<div style=""font-size:60px;"">+</div>","null","html-keyboard-response","44","312484","0.0-6.0-0.19","ANBL","3","f","rechts","21","","fixation","","","",""
"954","img/30_60.png","70","image-keyboard-response","45","313439","0.0-6.0-1.19","ANBL","3","f","rechts","21","","","object","j","30","false"
"null","<div style=""font-size:60px;"">+</div>","null","html-keyboard-response","46","313741","0.0-6.0-0.20","ANBL","3","f","rechts","21","","fixation","","","",""
"1156","img/90_210.png","74","image-keyboard-response","47","314898","0.0-6.0-1.20","ANBL","3","f","rechts","21","","","object","f","90","false"
"null","<div style=""font-size:60px;"">+</div>","null","html-keyboard-response","48","315249","0.0-6.0-0.21","ANBL","3","f","rechts","21","","fixation","","","",""
"787","img/0_60.png","74","image-keyboard-response","49","316037","0.0-6.0-1.21","ANBL","3","f","rechts","21","","","object","j","0","true"
"null","<div style=""font-size:60px;"">+</div>","null","html-keyboard-response","50","316389","0.0-6.0-0.22","ANBL","3","f","rechts","21","","fixation","","","",""
"869","img/120_270.png","74","image-keyboard-response","51","317260","0.0-6.0-1.22","ANBL","3","f","rechts","21","","","object","j","120","true"
"null","<div style=""font-size:60px;"">+</div>","null","html-keyboard-response","52","317761","0.0-6.0-0.23","ANBL","3","f","rechts","21","","fixation","","","",""
"1050","img/120_180.png","70","image-keyboard-response","53","318813","0.0-6.0-1.23","ANBL","3","f","rechts","21","","","object","f","120","true"
"null","<div style=""font-size:60px;"">+</div>","null","html-keyboard-response","54","319264","0.0-6.0-0.24","ANBL","3","f","rechts","21","","fixation","","","",""
"961","img/30_90.png","74","image-keyboard-response","55","320226","0.0-6.0-1.24","ANBL","3","f","rechts","21","","","object","j","30","true"
"null","<div style=""font-size:60px;"">+</div>","null","html-keyboard-response","56","320578","0.0-6.0-0.25","ANBL","3","f","rechts","21","","fixation","","","",""
"1257","img/90_60.png","70","image-keyboard-response","57","321836","0.0-6.0-1.25","ANBL","3","f","rechts","21","","","object","f","90","true"
"null","<div style=""font-size:60px;"">+</div>","null","html-keyboard-response","58","322237","0.0-6.0-0.26","ANBL","3","f","rechts","21","","fixation","","","",""
"1190","img/L150_180.png","74","image-keyboard-response","59","323429","0.0-6.0-1.26","ANBL","3","f","rechts","21","","","object","j","150","true"
"null","<div style=""font-size:60px;"">+</div>","null","html-keyboard-response","60","323880","0.0-6.0-0.27","ANBL","3","f","rechts","21","","fixation","","","",""
"1343","img/90_120.png","70","image-keyboard-response","61","325225","0.0-6.0-1.27","ANBL","3","f","rechts","21","","","object","j","90","false"
"null","<div style=""font-size:60px;"">+</div>","null","html-keyboard-response","62","325626","0.0-6.0-0.28","ANBL","3","f","rechts","21","","fixation","","","",""
"922","img/150_90.png","70","image-keyboard-response","63","326550","0.0-6.0-1.28","ANBL","3","f","rechts","21","","","object","f","150","true"
"null","<div style=""font-size:60px;"">+</div>","null","html-keyboard-response","64","327051","0.0-6.0-0.29","ANBL","3","f","rechts","21","","fixation","","","",""
"1172","img/30_300.png","74","image-keyboard-response","65","328224","0.0-6.0-1.29","ANBL","3","f","rechts","21","","","object","f","30","false"
"null","<div style=""font-size:60px;"">+</div>","null","html-keyboard-response","66","328676","0.0-6.0-0.30","ANBL","3","f","rechts","21","","fixation","","","",""
"2209","img/150_120.png","74","image-keyboard-response","67","330887","0.0-6.0-1.30","ANBL","3","f","rechts","21","","","object","f","150","false"
"null","<div style=""font-size:60px;"">+</div>","null","html-keyboard-response","68","331238","0.0-6.0-0.31","ANBL","3","f","rechts","21","","fixation","","","",""
"1254","img/60_150.png","74","image-keyboard-response","69","332493","0.0-6.0-1.31","ANBL","3","f","rechts","21","","","object","j","60","true"
"null","<div style=""font-size:60px;"">+</div>","null","html-keyboard-response","70","332795","0.0-6.0-0.32","ANBL","3","f","rechts","21","","fixation","","","",""
"1241","img/150_240.png","74","image-keyboard-response","71","334037","0.0-6.0-1.32","ANBL","3","f","rechts","21","","","object","j","150","true"
"null","<div style=""font-size:60px;"">+</div>","null","html-keyboard-response","72","334389","0.0-6.0-0.33","ANBL","3","f","rechts","21","","fixation","","","",""
"1933","img/120_90.png","70","image-keyboard-response","73","336324","0.0-6.0-1.33","ANBL","3","f","rechts","21","","","object","f","120","true"
"null","<div style=""font-size:60px;"">+</div>","null","html-keyboard-response","74","336624","0.0-6.0-0.34","ANBL","3","f","rechts","21","","fixation","","","",""
"949","img/150_300.png","74","image-keyboard-response","75","337575","0.0-6.0-1.34","ANBL","3","f","rechts","21","","","object","j","150","true"
"null","<div style=""font-size:60px;"">+</div>","null","html-keyboard-response","76","337876","0.0-6.0-0.35","ANBL","3","f","rechts","21","","fixation","","","",""
"1594","img/60_180.png","70","image-keyboard-response","77","339471","0.0-6.0-1.35","ANBL","3","f","rechts","21","","","object","f","60","true"
"null","<div style=""font-size:60px;"">+</div>","null","html-keyboard-response","78","339823","0.0-6.0-0.36","ANBL","3","f","rechts","21","","fixation","","","",""
"866","img/30_240.png","70","image-keyboard-response","79","340690","0.0-6.0-1.36","ANBL","3","f","rechts","21","","","object","f","30","true"
"null","<div style=""font-size:60px;"">+</div>","null","html-keyboard-response","80","341142","0.0-6.0-0.37","ANBL","3","f","rechts","21","","fixation","","","",""
"1300","img/120_150.png","74","image-keyboard-response","81","342442","0.0-6.0-1.37","ANBL","3","f","rechts","21","","","object","j","120","true"
"null","<div style=""font-size:60px;"">+</div>","null","html-keyboard-response","82","342794","0.0-6.0-0.38","ANBL","3","f","rechts","21","","fixation","","","",""
"760","img/0_300.png","70","image-keyboard-response","83","343555","0.0-6.0-1.38","ANBL","3","f","rechts","21","","","object","f","0","true"
"null","<div style=""font-size:60px;"">+</div>","null","html-keyboard-response","84","344007","0.0-6.0-0.39","ANBL","3","f","rechts","21","","fixation","","","",""
"890","img/150_60.png","70","image-keyboard-response","85","344898","0.0-6.0-1.39","ANBL","3","f","rechts","21","","","object","f","150","true"
"null","<div style=""font-size:60px;"">+</div>","null","html-keyboard-response","86","345250","0.0-6.0-0.40","ANBL","3","f","rechts","21","","fixation","","","",""
"868","img/90_300.png","74","image-keyboard-response","87","346119","0.0-6.0-1.40","ANBL","3","f","rechts","21","","","object","j","90","true"
"null","<div style=""font-size:60px;"">+</div>","null","html-keyboard-response","88","346471","0.0-6.0-0.41","ANBL","3","f","rechts","21","","fixation","","","",""
"670","img/0_30.png","74","image-keyboard-response","89","347141","0.0-6.0-1.41","ANBL","3","f","rechts","21","","","object","j","0","true"
"null","<div style=""font-size:60px;"">+</div>","null","html-keyboard-response","90","347592","0.0-6.0-0.42","ANBL","3","f","rechts","21","","fixation","","","",""
"1404","img/150_180.png","70","image-keyboard-response","91","348997","0.0-6.0-1.42","ANBL","3","f","rechts","21","","","object","f","150","true"
"null","<div style=""font-size:60px;"">+</div>","null","html-keyboard-response","92","349498","0.0-6.0-0.43","ANBL","3","f","rechts","21","","fixation","","","",""
"1292","img/L60_180.png","74","image-keyboard-response","93","350791","0.0-6.0-1.43","ANBL","3","f","rechts","21","","","object","j","60","true"
"null","<div style=""font-size:60px;"">+</div>","null","html-keyboard-response","94","351193","0.0-6.0-0.44","ANBL","3","f","rechts","21","","fixation","","","",""
"722","img/0_240.png","70","image-keyboard-response","95","351915","0.0-6.0-1.44","ANBL","3","f","rechts","21","","","object","f","0","true"
"null","<div style=""font-size:60px;"">+</div>","null","html-keyboard-response","96","352267","0.0-6.0-0.45","ANBL","3","f","rechts","21","","fixation","","","",""
"1838","img/30_180.png","70","image-keyboard-response","97","354107","0.0-6.0-1.45","ANBL","3","f","rechts","21","","","object","f","30","true"
"null","<div style=""font-size:60px;"">+</div>","null","html-keyboard-response","98","354408","0.0-6.0-0.46","ANBL","3","f","rechts","21","","fixation","","","",""
"951","img/120_330.png","74","image-keyboard-response","99","355360","0.0-6.0-1.46","ANBL","3","f","rechts","21","","","object","j","120","true"
"null","<div style=""font-size:60px;"">+</div>","null","html-keyboard-response","100","355762","0.0-6.0-0.47","ANBL","3","f","rechts","21","","fixation","","","",""
"663","img/0_150.png","74","image-keyboard-response","101","356426","0.0-6.0-1.47","ANBL","3","f","rechts","21","","","object","j","0","true"
"null","<div style=""font-size:60px;"">+</div>","null","html-keyboard-response","102","356828","0.0-6.0-0.48","ANBL","3","f","rechts","21","","fixation","","","",""
"1345","img/120_210.png","70","image-keyboard-response","103","358174","0.0-6.0-1.48","ANBL","3","f","rechts","21","","","object","f","120","true"
"null","<div style=""font-size:60px;"">+</div>","null","html-keyboard-response","104","358476","0.0-6.0-0.49","ANBL","3","f","rechts","21","","fixation","","","",""
"795","img/0_90.png","74","image-keyboard-response","105","359272","0.0-6.0-1.49","ANBL","3","f","rechts","21","","","object","j","0","true"
"null","<div style=""font-size:60px;"">+</div>","null","html-keyboard-response","106","359674","0.0-6.0-0.50","ANBL","3","f","rechts","21","","fixation","","","",""
"703","img/0_120.png","74","image-keyboard-response","107","360377","0.0-6.0-1.50","ANBL","3","f","rechts","21","","","object","j","0","true"
"null","<div style=""font-size:60px;"">+</div>","null","html-keyboard-response","108","360679","0.0-6.0-0.51","ANBL","3","f","rechts","21","","fixation","","","",""
"2343","img/30_270.png","70","image-keyboard-response","109","363023","0.0-6.0-1.51","ANBL","3","f","rechts","21","","","object","f","30","true"
"null","<div style=""font-size:60px;"">+</div>","null","html-keyboard-response","110","363375","0.0-6.0-0.52","ANBL","3","f","rechts","21","","fixation","","","",""
"1304","img/150_120.png","70","image-keyboard-response","111","364679","0.0-6.0-1.52","ANBL","3","f","rechts","21","","","object","f","150","true"
"null","<div style=""font-size:60px;"">+</div>","null","html-keyboard-response","112","364980","0.0-6.0-0.53","ANBL","3","f","rechts","21","","fixation","","","",""
"1726","img/90_240.png","70","image-keyboard-response","113","366708","0.0-6.0-1.53","ANBL","3","f","rechts","21","","","object","f","90","true"
"null","<div style=""font-size:60px;"">+</div>","null","html-keyboard-response","114","367009","0.0-6.0-0.54","ANBL","3","f","rechts","21","","fixation","","","",""
"726","img/0_30.png","74","image-keyboard-response","115","367736","0.0-6.0-1.54","ANBL","3","f","rechts","21","","","object","j","0","true"
"null","<div style=""font-size:60px;"">+</div>","null","html-keyboard-response","116","368238","0.0-6.0-0.55","ANBL","3","f","rechts","21","","fixation","","","",""
"1780","img/120_150.png","74","image-keyboard-response","117","370019","0.0-6.0-1.55","ANBL","3","f","rechts","21","","","object","j","120","true"
"null","<div style=""font-size:60px;"">+</div>","null","html-keyboard-response","118","370320","0.0-6.0-0.56","ANBL","3","f","rechts","21","","fixation","","","",""
"1264","img/60_150.png","74","image-keyboard-response","119","371586","0.0-6.0-1.56","ANBL","3","f","rechts","21","","","object","j","60","true"
"null","<div style=""font-size:60px;"">+</div>","null","html-keyboard-response","120","371887","0.0-6.0-0.57","ANBL","3","f","rechts","21","","fixation","","","",""
"2139","img/120_180.png","70","image-keyboard-response","121","374027","0.0-6.0-1.57","ANBL","3","f","rechts","21","","","object","f","120","true"
"null","<div style=""font-size:60px;"">+</div>","null","html-keyboard-response","122","374379","0.0-6.0-0.58","ANBL","3","f","rechts","21","","fixation","","","",""
"683","img/0_90.png","74","image-keyboard-response","123","375063","0.0-6.0-1.58","ANBL","3","f","rechts","21","","","object","j","0","true"
"null","<div style=""font-size:60px;"">+</div>","null","html-keyboard-response","124","375565","0.0-6.0-0.59","ANBL","3","f","rechts","21","","fixation","","","",""
"1777","img/L90_180.png","74","image-keyboard-response","125","377344","0.0-6.0-1.59","ANBL","3","f","rechts","21","","","object","j","90","true"
"null","<div style=""font-size:60px;"">+</div>","null","html-keyboard-response","126","377695","0.0-6.0-0.60","ANBL","3","f","rechts","21","","fixation","","","",""
"910","img/150_60.png","70","image-keyboard-response","127","378606","0.0-6.0-1.60","ANBL","3","f","rechts","21","","","object","f","150","true"
"null","<div style=""font-size:60px;"">+</div>","null","html-keyboard-response","128","378958","0.0-6.0-0.61","ANBL","3","f","rechts","21","","fixation","","","",""
"1971","img/30_180.png","70","image-keyboard-response","129","380930","0.0-6.0-1.61","ANBL","3","f","rechts","21","","","object","f","30","true"
"null","<div style=""font-size:60px;"">+</div>","null","html-keyboard-response","130","381332","0.0-6.0-0.62","ANBL","3","f","rechts","21","","fixation","","","",""
"1210","img/30_300.png","70","image-keyboard-response","131","382543","0.0-6.0-1.62","ANBL","3","f","rechts","21","","","object","f","30","true"
"null","<div style=""font-size:60px;"">+</div>","null","html-keyboard-response","132","382895","0.0-6.0-0.63","ANBL","3","f","rechts","21","","fixation","","","",""
"1214","img/90_300.png","74","image-keyboard-response","133","384109","0.0-6.0-1.63","ANBL","3","f","rechts","21","","","object","j","90","true"
"null","<div style=""font-size:60px;"">+</div>","null","html-keyboard-response","134","384511","0.0-6.0-0.64","ANBL","3","f","rechts","21","","fixation","","","",""
"953","img/60_30.png","70","image-keyboard-response","135","385465","0.0-6.0-1.64","ANBL","3","f","rechts","21","","","object","f","60","true"
"null","<div style=""font-size:60px;"">+</div>","null","html-keyboard-response","136","385867","0.0-6.0-0.65","ANBL","3","f","rechts","21","","fixation","","","",""
"1393","img/90_210.png","70","image-keyboard-response","137","387261","0.0-6.0-1.65","ANBL","3","f","rechts","21","","","object","f","90","true"
"null","<div style=""font-size:60px;"">+</div>","null","html-keyboard-response","138","387763","0.0-6.0-0.66","ANBL","3","f","rechts","21","","fixation","","","",""
"1840","img/150_270.png","74","image-keyboard-response","139","389604","0.0-6.0-1.66","ANBL","3","f","rechts","21","","","object","j","150","true"
"null","<div style=""font-size:60px;"">+</div>","null","html-keyboard-response","140","390006","0.0-6.0-0.67","ANBL","3","f","rechts","21","","fixation","","","",""
"1381","img/120_210.png","70","image-keyboard-response","141","391388","0.0-6.0-1.67","ANBL","3","f","rechts","21","","","object","f","120","true"
"null","<div style=""font-size:60px;"">+</div>","null","html-keyboard-response","142","391790","0.0-6.0-0.68","ANBL","3","f","rechts","21","","fixation","","","",""
"1792","img/60_180.png","70","image-keyboard-response","143","393582","0.0-6.0-1.68","ANBL","3","f","rechts","21","","","object","f","60","true"
"null","<div style=""font-size:60px;"">+</div>","null","html-keyboard-response","144","394034","0.0-6.0-0.69","ANBL","3","f","rechts","21","","fixation","","","",""
"1291","img/90_120.png","74","image-keyboard-response","145","395326","0.0-6.0-1.69","ANBL","3","f","rechts","21","","","object","j","90","true"
"null","<div style=""font-size:60px;"">+</div>","null","html-keyboard-response","146","395728","0.0-6.0-0.70","ANBL","3","f","rechts","21","","fixation","","","",""
"715","img/0_330.png","70","image-keyboard-response","147","396443","0.0-6.0-1.70","ANBL","3","f","rechts","21","","","object","f","0","true"
"null","<div style=""font-size:60px;"">+</div>","null","html-keyboard-response","148","396945","0.0-6.0-0.71","ANBL","3","f","rechts","21","","fixation","","","",""
"641","img/0_120.png","74","image-keyboard-response","149","397586","0.0-6.0-1.71","ANBL","3","f","rechts","21","","","object","j","0","true"
"null","<div style=""font-size:60px;"">+</div>","null","html-keyboard-response","150","398088","0.0-6.0-0.72","ANBL","3","f","rechts","21","","fixation","","","",""
"1045","img/90_30.png","70","image-keyboard-response","151","399133","0.0-6.0-1.72","ANBL","3","f","rechts","21","","","object","f","90","true"
"null","<div style=""font-size:60px;"">+</div>","null","html-keyboard-response","152","399634","0.0-6.0-0.73","ANBL","3","f","rechts","21","","fixation","","","",""
"2568","img/150_180.png","74","image-keyboard-response","153","402203","0.0-6.0-1.73","ANBL","3","f","rechts","21","","","object","f","150","false"
"null","<div style=""font-size:60px;"">+</div>","null","html-keyboard-response","154","402504","0.0-6.0-0.74","ANBL","3","f","rechts","21","","fixation","","","",""
"1156","img/30_60.png","70","image-keyboard-response","155","403662","0.0-6.0-1.74","ANBL","3","f","rechts","21","","","object","j","30","false"
"null","<div style=""font-size:60px;"">+</div>","null","html-keyboard-response","156","404113","0.0-6.0-0.75","ANBL","3","f","rechts","21","","fixation","","","",""
"1371","img/90_60.png","70","image-keyboard-response","157","405485","0.0-6.0-1.75","ANBL","3","f","rechts","21","","","object","f","90","true"
"null","<div style=""font-size:60px;"">+</div>","null","html-keyboard-response","158","405937","0.0-6.0-0.76","ANBL","3","f","rechts","21","","fixation","","","",""
"2380","img/60_270.png","70","image-keyboard-response","159","408319","0.0-6.0-1.76","ANBL","3","f","rechts","21","","","object","f","60","true"
"null","<div style=""font-size:60px;"">+</div>","null","html-keyboard-response","160","408720","0.0-6.0-0.77","ANBL","3","f","rechts","21","","fixation","","","",""
"1848","img/30_90.png","74","image-keyboard-response","161","410569","0.0-6.0-1.77","ANBL","3","f","rechts","21","","","object","j","30","true"
"null","<div style=""font-size:60px;"">+</div>","null","html-keyboard-response","162","411021","0.0-6.0-0.78","ANBL","3","f","rechts","21","","fixation","","","",""
"2208","img/150_90.png","74","image-keyboard-response","163","413230","0.0-6.0-1.78","ANBL","3","f","rechts","21","","","object","f","150","false"
"null","<div style=""font-size:60px;"">+</div>","null","html-keyboard-response","164","413582","0.0-6.0-0.79","ANBL","3","f","rechts","21","","fixation","","","",""
"2435","img/120_90.png","70","image-keyboard-response","165","416018","0.0-6.0-1.79","ANBL","3","f","rechts","21","","","object","f","120","true"
"null","<div style=""font-size:60px;"">+</div>","null","html-keyboard-response","166","416320","0.0-6.0-0.80","ANBL","3","f","rechts","21","","fixation","","","",""
"2887","img/30_120.png","74","image-keyboard-response","167","419208","0.0-6.0-1.80","ANBL","3","f","rechts","21","","","object","j","30","true"
"null","<div style=""font-size:60px;"">+</div>","null","html-keyboard-response","168","419510","0.0-6.0-0.81","ANBL","3","f","rechts","21","","fixation","","","",""
"683","img/0_60.png","74","image-keyboard-response","169","420193","0.0-6.0-1.81","ANBL","3","f","rechts","21","","","object","j","0","true"
"null","<div style=""font-size:60px;"">+</div>","null","html-keyboard-response","170","420595","0.0-6.0-0.82","ANBL","3","f","rechts","21","","fixation","","","",""
"1071","img/30_270.png","70","image-keyboard-response","171","421667","0.0-6.0-1.82","ANBL","3","f","rechts","21","","","object","f","30","true"
"null","<div style=""font-size:60px;"">+</div>","null","html-keyboard-response","172","422069","0.0-6.0-0.83","ANBL","3","f","rechts","21","","fixation","","","",""
"1293","img/120_30.png","70","image-keyboard-response","173","423363","0.0-6.0-1.83","ANBL","3","f","rechts","21","","","object","f","120","true"
"null","<div style=""font-size:60px;"">+</div>","null","html-keyboard-response","174","423765","0.0-6.0-0.84","ANBL","3","f","rechts","21","","fixation","","","",""
"641","img/0_300.png","70","image-keyboard-response","175","424406","0.0-6.0-1.84","ANBL","3","f","rechts","21","","","object","f","0","true"
"null","<div style=""font-size:60px;"">+</div>","null","html-keyboard-response","176","424858","0.0-6.0-0.85","ANBL","3","f","rechts","21","","fixation","","","",""
"985","img/150_300.png","74","image-keyboard-response","177","425843","0.0-6.0-1.85","ANBL","3","f","rechts","21","","","object","j","150","true"
"null","<div style=""font-size:60px;"">+</div>","null","html-keyboard-response","178","426295","0.0-6.0-0.86","ANBL","3","f","rechts","21","","fixation","","","",""
"1297","img/60_90.png","74","image-keyboard-response","179","427592","0.0-6.0-1.86","ANBL","3","f","rechts","21","","","object","j","60","true"
"null","<div style=""font-size:60px;"">+</div>","null","html-keyboard-response","180","428093","0.0-6.0-0.87","ANBL","3","f","rechts","21","","fixation","","","",""
"1931","img/0_210.png","70","image-keyboard-response","181","430025","0.0-6.0-1.87","ANBL","3","f","rechts","21","","","object","f","0","true"
"null","<div style=""font-size:60px;"">+</div>","null","html-keyboard-response","182","430377","0.0-6.0-0.88","ANBL","3","f","rechts","21","","fixation","","","",""
"637","img/0_270.png","70","image-keyboard-response","183","431014","0.0-6.0-1.88","ANBL","3","f","rechts","21","","","object","f","0","true"
"null","<div style=""font-size:60px;"">+</div>","null","html-keyboard-response","184","431466","0.0-6.0-0.89","ANBL","3","f","rechts","21","","fixation","","","",""
"641","img/0_150.png","74","image-keyboard-response","185","432107","0.0-6.0-1.89","ANBL","3","f","rechts","21","","","object","j","0","true"
"null","<div style=""font-size:60px;"">+</div>","null","html-keyboard-response","186","432408","0.0-6.0-0.90","ANBL","3","f","rechts","21","","fixation","","","",""
"778","img/30_240.png","70","image-keyboard-response","187","433187","0.0-6.0-1.90","ANBL","3","f","rechts","21","","","object","f","30","true"
"null","<div style=""font-size:60px;"">+</div>","null","html-keyboard-response","188","433588","0.0-6.0-0.91","ANBL","3","f","rechts","21","","fixation","","","",""
"1615","img/90_180.png","70","image-keyboard-response","189","435204","0.0-6.0-1.91","ANBL","3","f","rechts","21","","","object","f","90","true"
"null","<div style=""font-size:60px;"">+</div>","null","html-keyboard-response","190","435506","0.0-6.0-0.92","ANBL","3","f","rechts","21","","fixation","","","",""
"948","img/90_330.png","74","image-keyboard-response","191","436455","0.0-6.0-1.92","ANBL","3","f","rechts","21","","","object","j","90","true"
"null","<div style=""font-size:60px;"">+</div>","null","html-keyboard-response","192","436756","0.0-6.0-0.93","ANBL","3","f","rechts","21","","fixation","","","",""
"1476","img/L120_180.png","74","image-keyboard-response","193","438233","0.0-6.0-1.93","ANBL","3","f","rechts","21","","","object","j","120","true"
"null","<div style=""font-size:60px;"">+</div>","null","html-keyboard-response","194","438634","0.0-6.0-0.94","ANBL","3","f","rechts","21","","fixation","","","",""
"1502","img/60_210.png","70","image-keyboard-response","195","440138","0.0-6.0-1.94","ANBL","3","f","rechts","21","","","object","f","60","true"
"null","<div style=""font-size:60px;"">+</div>","null","html-keyboard-response","196","440439","0.0-6.0-0.95","ANBL","3","f","rechts","21","","fixation","","","",""
"676","img/0_240.png","70","image-keyboard-response","197","441116","0.0-6.0-1.95","ANBL","3","f","rechts","21","","","object","f","0","true"
"null","<div style=""font-size:60px;"">+</div>","null","html-keyboard-response","198","441518","0.0-6.0-0.96","ANBL","3","f","rechts","21","","fixation","","","",""
"1921","img/120_270.png","74","image-keyboard-response","199","443441","0.0-6.0-1.96","ANBL","3","f","rechts","21","","","object","j","120","true"
"null","<div style=""font-size:60px;"">+</div>","null","html-keyboard-response","200","443892","0.0-6.0-0.97","ANBL","3","f","rechts","21","","fixation","","","",""
"705","img/60_330.png","74","image-keyboard-response","201","444599","0.0-6.0-1.97","ANBL","3","f","rechts","21","","","object","j","60","true"
"null","<div style=""font-size:60px;"">+</div>","null","html-keyboard-response","202","445000","0.0-6.0-0.98","ANBL","3","f","rechts","21","","fixation","","","",""
"1967","img/150_240.png","70","image-keyboard-response","203","446968","0.0-6.0-1.98","ANBL","3","f","rechts","21","","","object","j","150","false"
"null","<div style=""font-size:60px;"">+</div>","null","html-keyboard-response","204","447420","0.0-6.0-0.99","ANBL","3","f","rechts","21","","fixation","","","",""
"1588","img/L30_180.png","74","image-keyboard-response","205","449009","0.0-6.0-1.99","ANBL","3","f","rechts","21","","","object","j","30","true"
"null","<div style=""font-size:60px;"">+</div>","null","html-keyboard-response","206","449511","0.0-6.0-0.100","ANBL","3","f","rechts","21","","fixation","","","",""
"1516","img/90_150.png","74","image-keyboard-response","207","451028","0.0-6.0-1.100","ANBL","3","f","rechts","21","","","object","j","90","true"
"null","<div style=""font-size:60px;"">+</div>","null","html-keyboard-response","208","451380","0.0-6.0-0.101","ANBL","3","f","rechts","21","","fixation","","","",""
"1079","img/120_330.png","74","image-keyboard-response","209","452459","0.0-6.0-1.101","ANBL","3","f","rechts","21","","","object","j","120","true"
"null","<div style=""font-size:60px;"">+</div>","null","html-keyboard-response","210","452961","0.0-6.0-0.102","ANBL","3","f","rechts","21","","fixation","","","",""
"1295","img/L150_180.png","74","image-keyboard-response","211","454257","0.0-6.0-1.102","ANBL","3","f","rechts","21","","","object","j","150","true"
"null","<div style=""font-size:60px;"">+</div>","null","html-keyboard-response","212","454659","0.0-6.0-0.103","ANBL","3","f","rechts","21","","fixation","","","",""
"1288","img/L60_180.png","74","image-keyboard-response","213","455948","0.0-6.0-1.103","ANBL","3","f","rechts","21","","","object","j","60","true"
"null","<div style=""font-size:60px;"">+</div>","null","html-keyboard-response","214","456400","0.0-6.0-0.104","ANBL","3","f","rechts","21","","fixation","","","",""
"809","img/L90_180.png","74","image-keyboard-response","215","457210","0.0-6.0-1.104","ANBL","3","f","rechts","21","","","object","j","90","true"
"null","<div style=""font-size:60px;"">+</div>","null","html-keyboard-response","216","457562","0.0-6.0-0.105","ANBL","3","f","rechts","21","","fixation","","","",""
"966","img/60_150.png","74","image-keyboard-response","217","458529","0.0-6.0-1.105","ANBL","3","f","rechts","21","","","object","j","60","true"
"null","<div style=""font-size:60px;"">+</div>","null","html-keyboard-response","218","459031","0.0-6.0-0.106","ANBL","3","f","rechts","21","","fixation","","","",""
"766","img/90_150.png","74","image-keyboard-response","219","459797","0.0-6.0-1.106","ANBL","3","f","rechts","21","","","object","j","90","true"
"null","<div style=""font-size:60px;"">+</div>","null","html-keyboard-response","220","460099","0.0-6.0-0.107","ANBL","3","f","rechts","21","","fixation","","","",""
"1163","img/150_90.png","70","image-keyboard-response","221","461262","0.0-6.0-1.107","ANBL","3","f","rechts","21","","","object","f","150","true"
"null","<div style=""font-size:60px;"">+</div>","null","html-keyboard-response","222","461613","0.0-6.0-0.108","ANBL","3","f","rechts","21","","fixation","","","",""
"918","img/150_60.png","70","image-keyboard-response","223","462532","0.0-6.0-1.108","ANBL","3","f","rechts","21","","","object","f","150","true"
"null","<div style=""font-size:60px;"">+</div>","null","html-keyboard-response","224","462884","0.0-6.0-0.109","ANBL","3","f","rechts","21","","fixation","","","",""
"1413","img/120_150.png","74","image-keyboard-response","225","464297","0.0-6.0-1.109","ANBL","3","f","rechts","21","","","object","j","120","true"
"null","<div style=""font-size:60px;"">+</div>","null","html-keyboard-response","226","464599","0.0-6.0-0.110","ANBL","3","f","rechts","21","","fixation","","","",""
"2048","img/30_270.png","70","image-keyboard-response","227","466647","0.0-6.0-1.110","ANBL","3","f","rechts","21","","","object","f","30","true"
"null","<div style=""font-size:60px;"">+</div>","null","html-keyboard-response","228","466999","0.0-6.0-0.111","ANBL","3","f","rechts","21","","fixation","","","",""
"1245","img/150_300.png","74","image-keyboard-response","229","468244","0.0-6.0-1.111","ANBL","3","f","rechts","21","","","object","j","150","true"
"null","<div style=""font-size:60px;"">+</div>","null","html-keyboard-response","230","468595","0.0-6.0-0.112","ANBL","3","f","rechts","21","","fixation","","","",""
"1817","img/L30_180.png","74","image-keyboard-response","231","470413","0.0-6.0-1.112","ANBL","3","f","rechts","21","","","object","j","30","true"
"null","<div style=""font-size:60px;"">+</div>","null","html-keyboard-response","232","470714","0.0-6.0-0.113","ANBL","3","f","rechts","21","","fixation","","","",""
"1614","img/150_120.png","74","image-keyboard-response","233","472329","0.0-6.0-1.113","ANBL","3","f","rechts","21","","","object","f","150","false"
"null","<div style=""font-size:60px;"">+</div>","null","html-keyboard-response","234","472831","0.0-6.0-0.114","ANBL","3","f","rechts","21","","fixation","","","",""
"1195","img/60_90.png","74","image-keyboard-response","235","474028","0.0-6.0-1.114","ANBL","3","f","rechts","21","","","object","j","60","true"
"null","<div style=""font-size:60px;"">+</div>","null","html-keyboard-response","236","474329","0.0-6.0-0.115","ANBL","3","f","rechts","21","","fixation","","","",""
"1911","img/120_210.png","70","image-keyboard-response","237","476242","0.0-6.0-1.115","ANBL","3","f","rechts","21","","","object","f","120","true"
"null","<div style=""font-size:60px;"">+</div>","null","html-keyboard-response","238","476543","0.0-6.0-0.116","ANBL","3","f","rechts","21","","fixation","","","",""
"1322","img/90_60.png","70","image-keyboard-response","239","477867","0.0-6.0-1.116","ANBL","3","f","rechts","21","","","object","f","90","true"
"null","<div style=""font-size:60px;"">+</div>","null","html-keyboard-response","240","478218","0.0-6.0-0.117","ANBL","3","f","rechts","21","","fixation","","","",""
"836","img/90_330.png","74","image-keyboard-response","241","479056","0.0-6.0-1.117","ANBL","3","f","rechts","21","","","object","j","90","true"
"null","<div style=""font-size:60px;"">+</div>","null","html-keyboard-response","242","479357","0.0-6.0-0.118","ANBL","3","f","rechts","21","","fixation","","","",""
"1240","img/0_270.png","70","image-keyboard-response","243","480597","0.0-6.0-1.118","ANBL","3","f","rechts","21","","","object","f","0","true"
"null","<div style=""font-size:60px;"">+</div>","null","html-keyboard-response","244","481049","0.0-6.0-0.119","ANBL","3","f","rechts","21","","fixation","","","",""
"1809","img/90_210.png","70","image-keyboard-response","245","482859","0.0-6.0-1.119","ANBL","3","f","rechts","21","","","object","f","90","true"
"null","<div style=""font-size:60px;"">+</div>","null","html-keyboard-response","246","483261","0.0-6.0-0.120","ANBL","3","f","rechts","21","","fixation","","","",""
"956","img/150_270.png","74","image-keyboard-response","247","484218","0.0-6.0-1.120","ANBL","3","f","rechts","21","","","object","j","150","true"
"null","<div style=""font-size:60px;"">+</div>","null","html-keyboard-response","248","484720","0.0-6.0-0.121","ANBL","3","f","rechts","21","","fixation","","","",""
"1222","img/30_90.png","74","image-keyboard-response","249","485943","0.0-6.0-1.121","ANBL","3","f","rechts","21","","","object","j","30","true"
"null","<div style=""font-size:60px;"">+</div>","null","html-keyboard-response","250","486395","0.0-6.0-0.122","ANBL","3","f","rechts","21","","fixation","","","",""
"1500","img/90_120.png","74","image-keyboard-response","251","487896","0.0-6.0-1.122","ANBL","3","f","rechts","21","","","object","j","90","true"
"null","<div style=""font-size:60px;"">+</div>","null","html-keyboard-response","252","488348","0.0-6.0-0.123","ANBL","3","f","rechts","21","","fixation","","","",""
"1419","img/120_180.png","70","image-keyboard-response","253","489768","0.0-6.0-1.123","ANBL","3","f","rechts","21","","","object","f","120","true"
"null","<div style=""font-size:60px;"">+</div>","null","html-keyboard-response","254","490120","0.0-6.0-0.124","ANBL","3","f","rechts","21","","fixation","","","",""
"810","img/0_90.png","74","image-keyboard-response","255","490931","0.0-6.0-1.124","ANBL","3","f","rechts","21","","","object","j","0","true"
"null","<div style=""font-size:60px;"">+</div>","null","html-keyboard-response","256","491433","0.0-6.0-0.125","ANBL","3","f","rechts","21","","fixation","","","",""
"715","img/0_30.png","74","image-keyboard-response","257","492149","0.0-6.0-1.125","ANBL","3","f","rechts","21","","","object","j","0","true"
"null","<div style=""font-size:60px;"">+</div>","null","html-keyboard-response","258","492501","0.0-6.0-0.126","ANBL","3","f","rechts","21","","fixation","","","",""
"1007","img/30_120.png","74","image-keyboard-response","259","493508","0.0-6.0-1.126","ANBL","3","f","rechts","21","","","object","j","30","true"
"null","<div style=""font-size:60px;"">+</div>","null","html-keyboard-response","260","493810","0.0-6.0-0.127","ANBL","3","f","rechts","21","","fixation","","","",""
"839","img/60_30.png","70","image-keyboard-response","261","494649","0.0-6.0-1.127","ANBL","3","f","rechts","21","","","object","f","60","true"
"null","<div style=""font-size:60px;"">+</div>","null","html-keyboard-response","262","495101","0.0-6.0-0.128","ANBL","3","f","rechts","21","","fixation","","","",""
"1145","img/L60_180.png","74","image-keyboard-response","263","496246","0.0-6.0-1.128","ANBL","3","f","rechts","21","","","object","j","60","true"
"null","<div style=""font-size:60px;"">+</div>","null","html-keyboard-response","264","496698","0.0-6.0-0.129","ANBL","3","f","rechts","21","","fixation","","","",""
"977","img/L120_180.png","74","image-keyboard-response","265","497675","0.0-6.0-1.129","ANBL","3","f","rechts","21","","","object","j","120","true"
"null","<div style=""font-size:60px;"">+</div>","null","html-keyboard-response","266","498027","0.0-6.0-0.130","ANBL","3","f","rechts","21","","fixation","","","",""
"1853","img/150_240.png","70","image-keyboard-response","267","499880","0.0-6.0-1.130","ANBL","3","f","rechts","21","","","object","j","150","false"
"null","<div style=""font-size:60px;"">+</div>","null","html-keyboard-response","268","500182","0.0-6.0-0.131","ANBL","3","f","rechts","21","","fixation","","","",""
"1408","img/60_210.png","70","image-keyboard-response","269","501591","0.0-6.0-1.131","ANBL","3","f","rechts","21","","","object","f","60","true"
"null","<div style=""font-size:60px;"">+</div>","null","html-keyboard-response","270","502093","0.0-6.0-0.132","ANBL","3","f","rechts","21","","fixation","","","",""
"2513","img/120_90.png","74","image-keyboard-response","271","504607","0.0-6.0-1.132","ANBL","3","f","rechts","21","","","object","f","120","false"
"null","<div style=""font-size:60px;"">+</div>","null","html-keyboard-response","272","505109","0.0-6.0-0.133","ANBL","3","f","rechts","21","","fixation","","","",""
"831","img/0_210.png","70","image-keyboard-response","273","505941","0.0-6.0-1.133","ANBL","3","f","rechts","21","","","object","f","0","true"
"null","<div style=""font-size:60px;"">+</div>","null","html-keyboard-response","274","506442","0.0-6.0-0.134","ANBL","3","f","rechts","21","","fixation","","","",""
"1467","img/60_330.png","74","image-keyboard-response","275","507910","0.0-6.0-1.134","ANBL","3","f","rechts","21","","","object","j","60","true"
"null","<div style=""font-size:60px;"">+</div>","null","html-keyboard-response","276","508412","0.0-6.0-0.135","ANBL","3","f","rechts","21","","fixation","","","",""
"989","img/0_330.png","70","image-keyboard-response","277","509401","0.0-6.0-1.135","ANBL","3","f","rechts","21","","","object","f","0","true"
"null","<div style=""font-size:60px;"">+</div>","null","html-keyboard-response","278","509753","0.0-6.0-0.136","ANBL","3","f","rechts","21","","fixation","","","",""
"1677","img/150_180.png","70","image-keyboard-response","279","511432","0.0-6.0-1.136","ANBL","3","f","rechts","21","","","object","f","150","true"
"null","<div style=""font-size:60px;"">+</div>","null","html-keyboard-response","280","511733","0.0-6.0-0.137","ANBL","3","f","rechts","21","","fixation","","","",""
"1756","img/90_240.png","70","image-keyboard-response","281","513490","0.0-6.0-1.137","ANBL","3","f","rechts","21","","","object","f","90","true"
"null","<div style=""font-size:60px;"">+</div>","null","html-keyboard-response","282","513992","0.0-6.0-0.138","ANBL","3","f","rechts","21","","fixation","","","",""
"1575","img/30_180.png","70","image-keyboard-response","283","515568","0.0-6.0-1.138","ANBL","3","f","rechts","21","","","object","f","30","true"
"null","<div style=""font-size:60px;"">+</div>","null","html-keyboard-response","284","516070","0.0-6.0-0.139","ANBL","3","f","rechts","21","","fixation","","","",""
"863","img/60_180.png","70","image-keyboard-response","285","516933","0.0-6.0-1.139","ANBL","3","f","rechts","21","","","object","f","60","true"
"null","<div style=""font-size:60px;"">+</div>","null","html-keyboard-response","286","517385","0.0-6.0-0.140","ANBL","3","f","rechts","21","","fixation","","","",""
"1468","img/L150_180.png","74","image-keyboard-response","287","518854","0.0-6.0-1.140","ANBL","3","f","rechts","21","","","object","j","150","true"
"null","<div style=""font-size:60px;"">+</div>","null","html-keyboard-response","288","519256","0.0-6.0-0.141","ANBL","3","f","rechts","21","","fixation","","","",""
"1113","img/0_120.png","74","image-keyboard-response","289","520370","0.0-6.0-1.141","ANBL","3","f","rechts","21","","","object","j","0","true"
"null","<div style=""font-size:60px;"">+</div>","null","html-keyboard-response","290","520672","0.0-6.0-0.142","ANBL","3","f","rechts","21","","fixation","","","",""
"1771","img/90_300.png","74","image-keyboard-response","291","522444","0.0-6.0-1.142","ANBL","3","f","rechts","21","","","object","j","90","true"
"null","<div style=""font-size:60px;"">+</div>","null","html-keyboard-response","292","522846","0.0-6.0-0.143","ANBL","3","f","rechts","21","","fixation","","","",""
"953","img/90_180.png","70","image-keyboard-response","293","523800","0.0-6.0-1.143","ANBL","3","f","rechts","21","","","object","f","90","true"
"null","<div style=""font-size:60px;"">+</div>","null","html-keyboard-response","294","524152","0.0-6.0-0.144","ANBL","3","f","rechts","21","","fixation","","","",""
"812","img/0_300.png","70","image-keyboard-response","295","524965","0.0-6.0-1.144","ANBL","3","f","rechts","21","","","object","f","0","true"
"null","<div style=""font-size:60px;"">+</div>","null","html-keyboard-response","296","525467","0.0-6.0-0.145","ANBL","3","f","rechts","21","","fixation","","","",""
"952","img/60_270.png","70","image-keyboard-response","297","526419","0.0-6.0-1.145","ANBL","3","f","rechts","21","","","object","f","60","true"
"null","<div style=""font-size:60px;"">+</div>","null","html-keyboard-response","298","526721","0.0-6.0-0.146","ANBL","3","f","rechts","21","","fixation","","","",""
"1490","img/30_60.png","74","image-keyboard-response","299","528211","0.0-6.0-1.146","ANBL","3","f","rechts","21","","","object","j","30","true"
"null","<div style=""font-size:60px;"">+</div>","null","html-keyboard-response","300","528663","0.0-6.0-0.147","ANBL","3","f","rechts","21","","fixation","","","",""
"1759","img/120_270.png","70","image-keyboard-response","301","530423","0.0-6.0-1.147","ANBL","3","f","rechts","21","","","object","j","120","false"
"null","<div style=""font-size:60px;"">+</div>","null","html-keyboard-response","302","530774","0.0-6.0-0.148","ANBL","3","f","rechts","21","","fixation","","","",""
"1289","img/0_150.png","74","image-keyboard-response","303","532064","0.0-6.0-1.148","ANBL","3","f","rechts","21","","","object","j","0","true"
"null","<div style=""font-size:60px;"">+</div>","null","html-keyboard-response","304","532416","0.0-6.0-0.149","ANBL","3","f","rechts","21","","fixation","","","",""
"1454","img/30_240.png","70","image-keyboard-response","305","533870","0.0-6.0-1.149","ANBL","3","f","rechts","21","","","object","f","30","true"
"null","<div style=""font-size:60px;"">+</div>","null","html-keyboard-response","306","534371","0.0-6.0-0.150","ANBL","3","f","rechts","21","","fixation","","","",""
"1448","img/120_30.png","70","image-keyboard-response","307","535821","0.0-6.0-1.150","ANBL","3","f","rechts","21","","","object","f","120","true"
"null","<div style=""font-size:60px;"">+</div>","null","html-keyboard-response","308","536173","0.0-6.0-0.151","ANBL","3","f","rechts","21","","fixation","","","",""
"1269","img/30_300.png","74","image-keyboard-response","309","537442","0.0-6.0-1.151","ANBL","3","f","rechts","21","","","object","f","30","false"
"null","<div style=""font-size:60px;"">+</div>","null","html-keyboard-response","310","537843","0.0-6.0-0.152","ANBL","3","f","rechts","21","","fixation","","","",""
"966","img/0_60.png","74","image-keyboard-response","311","538810","0.0-6.0-1.152","ANBL","3","f","rechts","21","","","object","j","0","true"
"null","<div style=""font-size:60px;"">+</div>","null","html-keyboard-response","312","539262","0.0-6.0-0.153","ANBL","3","f","rechts","21","","fixation","","","",""
"1475","img/90_30.png","70","image-keyboard-response","313","540738","0.0-6.0-1.153","ANBL","3","f","rechts","21","","","object","f","90","true"
"null","<div style=""font-size:60px;"">+</div>","null","html-keyboard-response","314","541239","0.0-6.0-0.154","ANBL","3","f","rechts","21","","fixation","","","",""
"857","img/0_240.png","70","image-keyboard-response","315","542098","0.0-6.0-1.154","ANBL","3","f","rechts","21","","","object","f","0","true"
"null","<div style=""font-size:60px;"">+</div>","null","html-keyboard-response","316","542499","0.0-6.0-0.155","ANBL","3","f","rechts","21","","fixation","","","",""
"1261","img/120_330.png","74","image-keyboard-response","317","543762","0.0-6.0-1.155","ANBL","3","f","rechts","21","","","object","j","120","true"
"null","<div style=""font-size:60px;"">+</div>","null","html-keyboard-response","318","544163","0.0-6.0-0.156","ANBL","3","f","rechts","21","","fixation","","","",""
"1320","img/150_60.png","70","image-keyboard-response","319","545485","0.0-6.0-1.156","ANBL","3","f","rechts","21","","","object","f","150","true"
"null","<div style=""font-size:60px;"">+</div>","null","html-keyboard-response","320","545886","0.0-6.0-0.157","ANBL","3","f","rechts","21","","fixation","","","",""
"1563","img/90_120.png","74","image-keyboard-response","321","547451","0.0-6.0-1.157","ANBL","3","f","rechts","21","","","object","j","90","true"
"null","<div style=""font-size:60px;"">+</div>","null","html-keyboard-response","322","547902","0.0-6.0-0.158","ANBL","3","f","rechts","21","","fixation","","","",""
"1226","img/60_180.png","70","image-keyboard-response","323","549129","0.0-6.0-1.158","ANBL","3","f","rechts","21","","","object","f","60","true"
"null","<div style=""font-size:60px;"">+</div>","null","html-keyboard-response","324","549431","0.0-6.0-0.159","ANBL","3","f","rechts","21","","fixation","","","",""
"980","img/90_240.png","70","image-keyboard-response","325","550412","0.0-6.0-1.159","ANBL","3","f","rechts","21","","","object","f","90","true"
"null","<div style=""font-size:60px;"">+</div>","null","html-keyboard-response","326","550914","0.0-6.0-0.160","ANBL","3","f","rechts","21","","fixation","","","",""
"1322","img/30_180.png","70","image-keyboard-response","327","552236","0.0-6.0-1.160","ANBL","3","f","rechts","21","","","object","f","30","true"
"null","<div style=""font-size:60px;"">+</div>","null","html-keyboard-response","328","552688","0.0-6.0-0.161","ANBL","3","f","rechts","21","","fixation","","","",""
"1349","img/60_270.png","70","image-keyboard-response","329","554037","0.0-6.0-1.161","ANBL","3","f","rechts","21","","","object","f","60","true"
"null","<div style=""font-size:60px;"">+</div>","null","html-keyboard-response","330","554439","0.0-6.0-0.162","ANBL","3","f","rechts","21","","fixation","","","",""
"1322","img/90_60.png","74","image-keyboard-response","331","555761","0.0-6.0-1.162","ANBL","3","f","rechts","21","","","object","f","90","false"
"null","<div style=""font-size:60px;"">+</div>","null","html-keyboard-response","332","556162","0.0-6.0-0.163","ANBL","3","f","rechts","21","","fixation","","","",""
"1422","img/L60_180.png","74","image-keyboard-response","333","557585","0.0-6.0-1.163","ANBL","3","f","rechts","21","","","object","j","60","true"
"null","<div style=""font-size:60px;"">+</div>","null","html-keyboard-response","334","557937","0.0-6.0-0.164","ANBL","3","f","rechts","21","","fixation","","","",""
"1357","img/60_330.png","74","image-keyboard-response","335","559294","0.0-6.0-1.164","ANBL","3","f","rechts","21","","","object","j","60","true"
"null","<div style=""font-size:60px;"">+</div>","null","html-keyboard-response","336","559746","0.0-6.0-0.165","ANBL","3","f","rechts","21","","fixation","","","",""
"708","img/0_300.png","70","image-keyboard-response","337","560454","0.0-6.0-1.165","ANBL","3","f","rechts","21","","","object","f","0","true"
"null","<div style=""font-size:60px;"">+</div>","null","html-keyboard-response","338","560956","0.0-6.0-0.166","ANBL","3","f","rechts","21","","fixation","","","",""
"1090","img/30_90.png","74","image-keyboard-response","339","562046","0.0-6.0-1.166","ANBL","3","f","rechts","21","","","object","j","30","true"
"null","<div style=""font-size:60px;"">+</div>","null","html-keyboard-response","340","562398","0.0-6.0-0.167","ANBL","3","f","rechts","21","","fixation","","","",""
"1541","img/120_270.png","74","image-keyboard-response","341","563939","0.0-6.0-1.167","ANBL","3","f","rechts","21","","","object","j","120","true"
"null","<div style=""font-size:60px;"">+</div>","null","html-keyboard-response","342","564291","0.0-6.0-0.168","ANBL","3","f","rechts","21","","fixation","","","",""
"855","img/90_330.png","74","image-keyboard-response","343","565146","0.0-6.0-1.168","ANBL","3","f","rechts","21","","","object","j","90","true"
"null","<div style=""font-size:60px;"">+</div>","null","html-keyboard-response","344","565598","0.0-6.0-0.169","ANBL","3","f","rechts","21","","fixation","","","",""
"1162","img/120_150.png","74","image-keyboard-response","345","566760","0.0-6.0-1.169","ANBL","3","f","rechts","21","","","object","j","120","true"
"null","<div style=""font-size:60px;"">+</div>","null","html-keyboard-response","346","567161","0.0-6.0-0.170","ANBL","3","f","rechts","21","","fixation","","","",""
"1335","img/30_270.png","70","image-keyboard-response","347","568496","0.0-6.0-1.170","ANBL","3","f","rechts","21","","","object","f","30","true"
"null","<div style=""font-size:60px;"">+</div>","null","html-keyboard-response","348","568947","0.0-6.0-0.171","ANBL","3","f","rechts","21","","fixation","","","",""
"758","img/0_120.png","74","image-keyboard-response","349","569706","0.0-6.0-1.171","ANBL","3","f","rechts","21","","","object","j","0","true"
"null","<div style=""font-size:60px;"">+</div>","null","html-keyboard-response","350","570108","0.0-6.0-0.172","ANBL","3","f","rechts","21","","fixation","","","",""
"1101","img/90_150.png","74","image-keyboard-response","351","571209","0.0-6.0-1.172","ANBL","3","f","rechts","21","","","object","j","90","true"
"null","<div style=""font-size:60px;"">+</div>","null","html-keyboard-response","352","571711","0.0-6.0-0.173","ANBL","3","f","rechts","21","","fixation","","","",""
"759","img/0_270.png","70","image-keyboard-response","353","572470","0.0-6.0-1.173","ANBL","3","f","rechts","21","","","object","f","0","true"
"null","<div style=""font-size:60px;"">+</div>","null","html-keyboard-response","354","572971","0.0-6.0-0.174","ANBL","3","f","rechts","21","","fixation","","","",""
"760","img/0_60.png","74","image-keyboard-response","355","573732","0.0-6.0-1.174","ANBL","3","f","rechts","21","","","object","j","0","true"
"null","<div style=""font-size:60px;"">+</div>","null","html-keyboard-response","356","574134","0.0-6.0-0.175","ANBL","3","f","rechts","21","","fixation","","","",""
"893","img/60_30.png","70","image-keyboard-response","357","575027","0.0-6.0-1.175","ANBL","3","f","rechts","21","","","object","f","60","true"
"null","<div style=""font-size:60px;"">+</div>","null","html-keyboard-response","358","575429","0.0-6.0-0.176","ANBL","3","f","rechts","21","","fixation","","","",""
"1347","img/L150_180.png","74","image-keyboard-response","359","576776","0.0-6.0-1.176","ANBL","3","f","rechts","21","","","object","j","150","true"
"null","<div style=""font-size:60px;"">+</div>","null","html-keyboard-response","360","577228","0.0-6.0-0.177","ANBL","3","f","rechts","21","","fixation","","","",""
"932","img/60_150.png","74","image-keyboard-response","361","578162","0.0-6.0-1.177","ANBL","3","f","rechts","21","","","object","j","60","true"
"null","<div style=""font-size:60px;"">+</div>","null","html-keyboard-response","362","578613","0.0-6.0-0.178","ANBL","3","f","rechts","21","","fixation","","","",""
"901","img/120_30.png","70","image-keyboard-response","363","579515","0.0-6.0-1.178","ANBL","3","f","rechts","21","","","object","f","120","true"
"null","<div style=""font-size:60px;"">+</div>","null","html-keyboard-response","364","579917","0.0-6.0-0.179","ANBL","3","f","rechts","21","","fixation","","","",""
"806","img/0_30.png","74","image-keyboard-response","365","580725","0.0-6.0-1.179","ANBL","3","f","rechts","21","","","object","j","0","true"
"null","<div style=""font-size:60px;"">+</div>","null","html-keyboard-response","366","581026","0.0-6.0-0.180","ANBL","3","f","rechts","21","","fixation","","","",""
"1230","img/30_300.png","74","image-keyboard-response","367","582257","0.0-6.0-1.180","ANBL","3","f","rechts","21","","","object","f","30","false"
"null","<div style=""font-size:60px;"">+</div>","null","html-keyboard-response","368","582559","0.0-6.0-0.181","ANBL","3","f","rechts","21","","fixation","","","",""
"1575","img/120_210.png","70","image-keyboard-response","369","584135","0.0-6.0-1.181","ANBL","3","f","rechts","21","","","object","f","120","true"
"null","<div style=""font-size:60px;"">+</div>","null","html-keyboard-response","370","584637","0.0-6.0-0.182","ANBL","3","f","rechts","21","","fixation","","","",""
"1382","img/30_240.png","70","image-keyboard-response","371","586020","0.0-6.0-1.182","ANBL","3","f","rechts","21","","","object","f","30","true"
"null","<div style=""font-size:60px;"">+</div>","null","html-keyboard-response","372","586422","0.0-6.0-0.183","ANBL","3","f","rechts","21","","fixation","","","",""
"1090","img/120_330.png","74","image-keyboard-response","373","587513","0.0-6.0-1.183","ANBL","3","f","rechts","21","","","object","j","120","true"
"null","<div style=""font-size:60px;"">+</div>","null","html-keyboard-response","374","587965","0.0-6.0-0.184","ANBL","3","f","rechts","21","","fixation","","","",""
"1282","img/150_90.png","70","image-keyboard-response","375","589248","0.0-6.0-1.184","ANBL","3","f","rechts","21","","","object","f","150","true"
"null","<div style=""font-size:60px;"">+</div>","null","html-keyboard-response","376","589600","0.0-6.0-0.185","ANBL","3","f","rechts","21","","fixation","","","",""
"769","img/0_90.png","74","image-keyboard-response","377","590370","0.0-6.0-1.185","ANBL","3","f","rechts","21","","","object","j","0","true"
"null","<div style=""font-size:60px;"">+</div>","null","html-keyboard-response","378","590722","0.0-6.0-0.186","ANBL","3","f","rechts","21","","fixation","","","",""
"1491","img/120_90.png","74","image-keyboard-response","379","592214","0.0-6.0-1.186","ANBL","3","f","rechts","21","","","object","f","120","false"
"null","<div style=""font-size:60px;"">+</div>","null","html-keyboard-response","380","592716","0.0-6.0-0.187","ANBL","3","f","rechts","21","","fixation","","","",""
"2089","img/L30_180.png","74","image-keyboard-response","381","594806","0.0-6.0-1.187","ANBL","3","f","rechts","21","","","object","j","30","true"
"null","<div style=""font-size:60px;"">+</div>","null","html-keyboard-response","382","595258","0.0-6.0-0.188","ANBL","3","f","rechts","21","","fixation","","","",""
"2161","img/30_120.png","74","image-keyboard-response","383","597419","0.0-6.0-1.188","ANBL","3","f","rechts","21","","","object","j","30","true"
"null","<div style=""font-size:60px;"">+</div>","null","html-keyboard-response","384","597771","0.0-6.0-0.189","ANBL","3","f","rechts","21","","fixation","","","",""
"1537","img/60_210.png","70","image-keyboard-response","385","599309","0.0-6.0-1.189","ANBL","3","f","rechts","21","","","object","f","60","true"
"null","<div style=""font-size:60px;"">+</div>","null","html-keyboard-response","386","599610","0.0-6.0-0.190","ANBL","3","f","rechts","21","","fixation","","","",""
"1634","img/L90_180.png","74","image-keyboard-response","387","601245","0.0-6.0-1.190","ANBL","3","f","rechts","21","","","object","j","90","true"
"null","<div style=""font-size:60px;"">+</div>","null","html-keyboard-response","388","601696","0.0-6.0-0.191","ANBL","3","f","rechts","21","","fixation","","","",""
"1243","img/30_60.png","74","image-keyboard-response","389","602940","0.0-6.0-1.191","ANBL","3","f","rechts","21","","","object","j","30","true"
"null","<div style=""font-size:60px;"">+</div>","null","html-keyboard-response","390","603292","0.0-6.0-0.192","ANBL","3","f","rechts","21","","fixation","","","",""
"802","img/0_330.png","70","image-keyboard-response","391","604094","0.0-6.0-1.192","ANBL","3","f","rechts","21","","","object","f","0","true"
"null","<div style=""font-size:60px;"">+</div>","null","html-keyboard-response","392","604445","0.0-6.0-0.193","ANBL","3","f","rechts","21","","fixation","","","",""
"954","img/0_240.png","70","image-keyboard-response","393","605400","0.0-6.0-1.193","ANBL","3","f","rechts","21","","","object","f","0","true"
"null","<div style=""font-size:60px;"">+</div>","null","html-keyboard-response","394","605752","0.0-6.0-0.194","ANBL","3","f","rechts","21","","fixation","","","",""
"771","img/0_210.png","70","image-keyboard-response","395","606523","0.0-6.0-1.194","ANBL","3","f","rechts","21","","","object","f","0","true"
"null","<div style=""font-size:60px;"">+</div>","null","html-keyboard-response","396","606824","0.0-6.0-0.195","ANBL","3","f","rechts","21","","fixation","","","",""
"1470","img/60_90.png","74","image-keyboard-response","397","608295","0.0-6.0-1.195","ANBL","3","f","rechts","21","","","object","j","60","true"
"null","<div style=""font-size:60px;"">+</div>","null","html-keyboard-response","398","608746","0.0-6.0-0.196","ANBL","3","f","rechts","21","","fixation","","","",""
"1458","img/90_210.png","70","image-keyboard-response","399","610205","0.0-6.0-1.196","ANBL","3","f","rechts","21","","","object","f","90","true"
"null","<div style=""font-size:60px;"">+</div>","null","html-keyboard-response","400","610556","0.0-6.0-0.197","ANBL","3","f","rechts","21","","fixation","","","",""
"1416","img/150_270.png","74","image-keyboard-response","401","611974","0.0-6.0-1.197","ANBL","3","f","rechts","21","","","object","j","150","true"
"null","<div style=""font-size:60px;"">+</div>","null","html-keyboard-response","402","612475","0.0-6.0-0.198","ANBL","3","f","rechts","21","","fixation","","","",""
"882","img/90_300.png","74","image-keyboard-response","403","613359","0.0-6.0-1.198","ANBL","3","f","rechts","21","","","object","j","90","true"
"null","<div style=""font-size:60px;"">+</div>","null","html-keyboard-response","404","613660","0.0-6.0-0.199","ANBL","3","f","rechts","21","","fixation","","","",""
"1293","img/0_150.png","74","image-keyboard-response","405","614954","0.0-6.0-1.199","ANBL","3","f","rechts","21","","","object","j","0","true"
"null","<div style=""font-size:60px;"">+</div>","null","html-keyboard-response","406","615356","0.0-6.0-0.200","ANBL","3","f","rechts","21","","fixation","","","",""
"1696","img/150_120.png","74","image-keyboard-response","407","617054","0.0-6.0-1.200","ANBL","3","f","rechts","21","","","object","f","150","false"
"null","<div style=""font-size:60px;"">+</div>","null","html-keyboard-response","408","617455","0.0-6.0-0.201","ANBL","3","f","rechts","21","","fixation","","","",""
"2238","img/150_180.png","70","image-keyboard-response","409","619695","0.0-6.0-1.201","ANBL","3","f","rechts","21","","","object","f","150","true"
"null","<div style=""font-size:60px;"">+</div>","null","html-keyboard-response","410","620096","0.0-6.0-0.202","ANBL","3","f","rechts","21","","fixation","","","",""
"1384","img/150_240.png","70","image-keyboard-response","411","621481","0.0-6.0-1.202","ANBL","3","f","rechts","21","","","object","j","150","false"
"null","<div style=""font-size:60px;"">+</div>","null","html-keyboard-response","412","621933","0.0-6.0-0.203","ANBL","3","f","rechts","21","","fixation","","","",""
"1089","img/90_180.png","70","image-keyboard-response","413","623023","0.0-6.0-1.203","ANBL","3","f","rechts","21","","","object","f","90","true"
"null","<div style=""font-size:60px;"">+</div>","null","html-keyboard-response","414","623425","0.0-6.0-0.204","ANBL","3","f","rechts","21","","fixation","","","",""
"918","img/120_180.png","70","image-keyboard-response","415","624343","0.0-6.0-1.204","ANBL","3","f","rechts","21","","","object","f","120","true"
"null","<div style=""font-size:60px;"">+</div>","null","html-keyboard-response","416","624795","0.0-6.0-0.205","ANBL","3","f","rechts","21","","fixation","","","",""
"1073","img/L120_180.png","74","image-keyboard-response","417","625869","0.0-6.0-1.205","ANBL","3","f","rechts","21","","","object","j","120","true"
"null","<div style=""font-size:60px;"">+</div>","null","html-keyboard-response","418","626220","0.0-6.0-0.206","ANBL","3","f","rechts","21","","fixation","","","",""
"880","img/90_30.png","70","image-keyboard-response","419","627101","0.0-6.0-1.206","ANBL","3","f","rechts","21","","","object","f","90","true"
"null","<div style=""font-size:60px;"">+</div>","null","html-keyboard-response","420","627503","0.0-6.0-0.207","ANBL","3","f","rechts","21","","fixation","","","",""
"1259","img/150_300.png","74","image-keyboard-response","421","628763","0.0-6.0-1.207","ANBL","3","f","rechts","21","","","object","j","150","true"
"13326","<p>Du hast in 88% der Versuche korrekt entschieden.</p><p>Deine durchschnittliche Reaktionszeit war  1224ms.</p><p>Dr&uuml;cke eine beliebige Taste, um die Session zu beenden. Vielen Dank!</p>","75","html-keyboard-response","422","642091","0.0-7.0","ANBL","3","f","rechts","21","","","","","",""
