"rt","stimulus","key_press","trial_type","trial_index","time_elapsed","internal_node_id","subject","session","sex","handedness","age","responses","test_part","condition","correct_response","angle","correct"
"3494","<p>Mental Rotation Experiment.</p> <p>Dr&uuml;cke eine beliebige Taste, um anzufangen.</p>","83","html-keyboard-response","0","3498","0.0-0.0","ANBL","1","f","rechts","21","","","","","",""
"4889","","","survey-text","1","8389","0.0-1.0","ANBL","1","f","rechts","21","{""Q0"":""ANBL""}","","","","",""
"3398","","","survey-text","2","11787","0.0-2.0","ANBL","1","f","rechts","21","{""Q0"":""1""}","","","","",""
"3766","","","survey-multi-choice","3","15555","0.0-3.0","ANBL","1","f","rechts","21","{""Q0"":""f"",""Q1"":""rechts""}","","","","",""
"1948","","","survey-text","4","17504","0.0-4.0","ANBL","1","f","rechts","21","{""Q0"":""21""}","","","","",""
"228243","<p> Stell dir vor, dass du vor einem runden Tisch stehst, auf dem sich ein blauer Ball am Tischrand befindet. Entlang des Tischrands ist jeweils ein verschieden langer Pfeil. Nun bewegst du dich entlang dieses Pfeils bis an seine Spitze. Wenn du am Ende des Pfeils angekommen bist, schau zur Tischmitte. </p> <img src='img/90_180.png'></img> <br> <p>Entscheide dann, ob der Ball von deiner neuen (vorgestellten) Position links oder rechts von dir liegt.</p> <p>Dr&uuml;cke die <strong>'f'</strong>-Taste f&uuml;r links, die <strong>'j'</strong>-Taste f&uuml;r rechts.</p> <br><p> Das Bild wird jeweils 1 Sekunde lang pr&auml;sentiert. Du hast 3 Sekunden Zeit eine Entscheidung zu treffen.</p>","74","html-keyboard-response","5","245749","0.0-5.0","ANBL","1","f","rechts","21","","","","","",""
"null","<div style=""font-size:60px;"">+</div>","null","html-keyboard-response","6","247052","0.0-6.0-0.0","ANBL","1","f","rechts","21","","fixation","","","",""
"1655","img/90_150.png","70","image-keyboard-response","7","248709","0.0-6.0-1.0","ANBL","1","f","rechts","21","","","self","f","90","true"
"null","<div style=""font-size:60px;"">+</div>","null","html-keyboard-response","8","249211","0.0-6.0-0.1","ANBL","1","f","rechts","21","","fixation","","","",""
"1208","img/60_180.png","74","image-keyboard-response","9","250421","0.0-6.0-1.1","ANBL","1","f","rechts","21","","","self","j","60","true"
"null","<div style=""font-size:60px;"">+</div>","null","html-keyboard-response","10","250922","0.0-6.0-0.2","ANBL","1","f","rechts","21","","fixation","","","",""
"753","img/0_30.png","74","image-keyboard-response","11","251677","0.0-6.0-1.2","ANBL","1","f","rechts","21","","","self","j","0","true"
"null","<div style=""font-size:60px;"">+</div>","null","html-keyboard-response","12","252128","0.0-6.0-0.3","ANBL","1","f","rechts","21","","fixation","","","",""
"1104","img/L150_180.png","70","image-keyboard-response","13","253233","0.0-6.0-1.3","ANBL","1","f","rechts","21","","","self","f","150","true"
"null","<div style=""font-size:60px;"">+</div>","null","html-keyboard-response","14","253685","0.0-6.0-0.4","ANBL","1","f","rechts","21","","fixation","","","",""
"1010","img/30_180.png","74","image-keyboard-response","15","254696","0.0-6.0-1.4","ANBL","1","f","rechts","21","","","self","j","30","true"
"null","<div style=""font-size:60px;"">+</div>","null","html-keyboard-response","16","254998","0.0-6.0-0.5","ANBL","1","f","rechts","21","","fixation","","","",""
"2278","img/120_30.png","74","image-keyboard-response","17","257279","0.0-6.0-1.5","ANBL","1","f","rechts","21","","","self","j","120","true"
"null","<div style=""font-size:60px;"">+</div>","null","html-keyboard-response","18","257580","0.0-6.0-0.6","ANBL","1","f","rechts","21","","fixation","","","",""
"2019","img/150_60.png","74","image-keyboard-response","19","259601","0.0-6.0-1.6","ANBL","1","f","rechts","21","","","self","f","150","false"
"null","<div style=""font-size:60px;"">+</div>","null","html-keyboard-response","20","259952","0.0-6.0-0.7","ANBL","1","f","rechts","21","","fixation","","","",""
"692","img/0_240.png","70","image-keyboard-response","21","260645","0.0-6.0-1.7","ANBL","1","f","rechts","21","","","self","f","0","true"
"null","<div style=""font-size:60px;"">+</div>","null","html-keyboard-response","22","260997","0.0-6.0-0.8","ANBL","1","f","rechts","21","","fixation","","","",""
"1813","img/90_60.png","74","image-keyboard-response","23","262812","0.0-6.0-1.8","ANBL","1","f","rechts","21","","","self","j","90","true"
"null","<div style=""font-size:60px;"">+</div>","null","html-keyboard-response","24","263163","0.0-6.0-0.9","ANBL","1","f","rechts","21","","fixation","","","",""
"1207","img/120_150.png","70","image-keyboard-response","25","264372","0.0-6.0-1.9","ANBL","1","f","rechts","21","","","self","f","120","true"
"null","<div style=""font-size:60px;"">+</div>","null","html-keyboard-response","26","264874","0.0-6.0-0.10","ANBL","1","f","rechts","21","","fixation","","","",""
"1009","img/L60_180.png","70","image-keyboard-response","27","265884","0.0-6.0-1.10","ANBL","1","f","rechts","21","","","self","f","60","true"
"null","<div style=""font-size:60px;"">+</div>","null","html-keyboard-response","28","266286","0.0-6.0-0.11","ANBL","1","f","rechts","21","","fixation","","","",""
"2251","img/60_270.png","70","image-keyboard-response","29","268538","0.0-6.0-1.11","ANBL","1","f","rechts","21","","","self","f","60","true"
"null","<div style=""font-size:60px;"">+</div>","null","html-keyboard-response","30","269040","0.0-6.0-0.12","ANBL","1","f","rechts","21","","fixation","","","",""
"1146","img/90_240.png","74","image-keyboard-response","31","270187","0.0-6.0-1.12","ANBL","1","f","rechts","21","","","self","j","90","true"
"null","<div style=""font-size:60px;"">+</div>","null","html-keyboard-response","32","270489","0.0-6.0-0.13","ANBL","1","f","rechts","21","","fixation","","","",""
"1269","img/150_120.png","70","image-keyboard-response","33","271759","0.0-6.0-1.13","ANBL","1","f","rechts","21","","","self","f","150","true"
"null","<div style=""font-size:60px;"">+</div>","null","html-keyboard-response","34","272060","0.0-6.0-0.14","ANBL","1","f","rechts","21","","fixation","","","",""
"700","img/0_300.png","70","image-keyboard-response","35","272761","0.0-6.0-1.14","ANBL","1","f","rechts","21","","","self","f","0","true"
"null","<div style=""font-size:60px;"">+</div>","null","html-keyboard-response","36","273062","0.0-6.0-0.15","ANBL","1","f","rechts","21","","fixation","","","",""
"1742","img/90_30.png","74","image-keyboard-response","37","274805","0.0-6.0-1.15","ANBL","1","f","rechts","21","","","self","j","90","true"
"null","<div style=""font-size:60px;"">+</div>","null","html-keyboard-response","38","275157","0.0-6.0-0.16","ANBL","1","f","rechts","21","","fixation","","","",""
"1877","img/150_90.png","70","image-keyboard-response","39","277035","0.0-6.0-1.16","ANBL","1","f","rechts","21","","","self","f","150","true"
"null","<div style=""font-size:60px;"">+</div>","null","html-keyboard-response","40","277537","0.0-6.0-0.17","ANBL","1","f","rechts","21","","fixation","","","",""
"1328","img/30_270.png","70","image-keyboard-response","41","278866","0.0-6.0-1.17","ANBL","1","f","rechts","21","","","self","f","30","true"
"null","<div style=""font-size:60px;"">+</div>","null","html-keyboard-response","42","279268","0.0-6.0-0.18","ANBL","1","f","rechts","21","","fixation","","","",""
"709","img/0_270.png","70","image-keyboard-response","43","279978","0.0-6.0-1.18","ANBL","1","f","rechts","21","","","self","f","0","true"
"null","<div style=""font-size:60px;"">+</div>","null","html-keyboard-response","44","280330","0.0-6.0-0.19","ANBL","1","f","rechts","21","","fixation","","","",""
"1171","img/150_270.png","74","image-keyboard-response","45","281502","0.0-6.0-1.19","ANBL","1","f","rechts","21","","","self","j","150","true"
"null","<div style=""font-size:60px;"">+</div>","null","html-keyboard-response","46","282004","0.0-6.0-0.20","ANBL","1","f","rechts","21","","fixation","","","",""
"1288","img/60_90.png","74","image-keyboard-response","47","283293","0.0-6.0-1.20","ANBL","1","f","rechts","21","","","self","j","60","true"
"null","<div style=""font-size:60px;"">+</div>","null","html-keyboard-response","48","283745","0.0-6.0-0.21","ANBL","1","f","rechts","21","","fixation","","","",""
"645","img/0_330.png","70","image-keyboard-response","49","284391","0.0-6.0-1.21","ANBL","1","f","rechts","21","","","self","f","0","true"
"null","<div style=""font-size:60px;"">+</div>","null","html-keyboard-response","50","284793","0.0-6.0-0.22","ANBL","1","f","rechts","21","","fixation","","","",""
"1507","img/60_30.png","74","image-keyboard-response","51","286301","0.0-6.0-1.22","ANBL","1","f","rechts","21","","","self","j","60","true"
"null","<div style=""font-size:60px;"">+</div>","null","html-keyboard-response","52","286752","0.0-6.0-0.23","ANBL","1","f","rechts","21","","fixation","","","",""
"1166","img/90_330.png","70","image-keyboard-response","53","287920","0.0-6.0-1.23","ANBL","1","f","rechts","21","","","self","f","90","true"
"null","<div style=""font-size:60px;"">+</div>","null","html-keyboard-response","54","288221","0.0-6.0-0.24","ANBL","1","f","rechts","21","","fixation","","","",""
"1272","img/120_330.png","70","image-keyboard-response","55","289495","0.0-6.0-1.24","ANBL","1","f","rechts","21","","","self","f","120","true"
"null","<div style=""font-size:60px;"">+</div>","null","html-keyboard-response","56","289947","0.0-6.0-0.25","ANBL","1","f","rechts","21","","fixation","","","",""
"894","img/0_120.png","74","image-keyboard-response","57","290842","0.0-6.0-1.25","ANBL","1","f","rechts","21","","","self","j","0","true"
"null","<div style=""font-size:60px;"">+</div>","null","html-keyboard-response","58","291244","0.0-6.0-0.26","ANBL","1","f","rechts","21","","fixation","","","",""
"1147","img/0_90.png","74","image-keyboard-response","59","292393","0.0-6.0-1.26","ANBL","1","f","rechts","21","","","self","j","0","true"
"null","<div style=""font-size:60px;"">+</div>","null","html-keyboard-response","60","292844","0.0-6.0-0.27","ANBL","1","f","rechts","21","","fixation","","","",""
"1321","img/30_240.png","70","image-keyboard-response","61","294166","0.0-6.0-1.27","ANBL","1","f","rechts","21","","","self","f","30","true"
"null","<div style=""font-size:60px;"">+</div>","null","html-keyboard-response","62","294568","0.0-6.0-0.28","ANBL","1","f","rechts","21","","fixation","","","",""
"1911","img/L120_180.png","70","image-keyboard-response","63","296481","0.0-6.0-1.28","ANBL","1","f","rechts","21","","","self","f","120","true"
"null","<div style=""font-size:60px;"">+</div>","null","html-keyboard-response","64","296932","0.0-6.0-0.29","ANBL","1","f","rechts","21","","fixation","","","",""
"1073","img/30_120.png","74","image-keyboard-response","65","298007","0.0-6.0-1.29","ANBL","1","f","rechts","21","","","self","j","30","true"
"null","<div style=""font-size:60px;"">+</div>","null","html-keyboard-response","66","298509","0.0-6.0-0.30","ANBL","1","f","rechts","21","","fixation","","","",""
"1068","img/60_150.png","70","image-keyboard-response","67","299578","0.0-6.0-1.30","ANBL","1","f","rechts","21","","","self","f","60","true"
"null","<div style=""font-size:60px;"">+</div>","null","html-keyboard-response","68","299980","0.0-6.0-0.31","ANBL","1","f","rechts","21","","fixation","","","",""
"829","img/0_60.png","74","image-keyboard-response","69","300811","0.0-6.0-1.31","ANBL","1","f","rechts","21","","","self","j","0","true"
"null","<div style=""font-size:60px;"">+</div>","null","html-keyboard-response","70","301112","0.0-6.0-0.32","ANBL","1","f","rechts","21","","fixation","","","",""
"826","img/L30_180.png","70","image-keyboard-response","71","301940","0.0-6.0-1.32","ANBL","1","f","rechts","21","","","self","f","30","true"
"null","<div style=""font-size:60px;"">+</div>","null","html-keyboard-response","72","302391","0.0-6.0-0.33","ANBL","1","f","rechts","21","","fixation","","","",""
"1187","img/150_240.png","74","image-keyboard-response","73","303581","0.0-6.0-1.33","ANBL","1","f","rechts","21","","","self","j","150","true"
"null","<div style=""font-size:60px;"">+</div>","null","html-keyboard-response","74","303933","0.0-6.0-0.34","ANBL","1","f","rechts","21","","fixation","","","",""
"744","img/0_210.png","70","image-keyboard-response","75","304678","0.0-6.0-1.34","ANBL","1","f","rechts","21","","","self","f","0","true"
"null","<div style=""font-size:60px;"">+</div>","null","html-keyboard-response","76","305030","0.0-6.0-0.35","ANBL","1","f","rechts","21","","fixation","","","",""
"1136","img/60_330.png","70","image-keyboard-response","77","306168","0.0-6.0-1.35","ANBL","1","f","rechts","21","","","self","f","60","true"
"null","<div style=""font-size:60px;"">+</div>","null","html-keyboard-response","78","306669","0.0-6.0-0.36","ANBL","1","f","rechts","21","","fixation","","","",""
"1816","img/120_210.png","74","image-keyboard-response","79","308486","0.0-6.0-1.36","ANBL","1","f","rechts","21","","","self","j","120","true"
"null","<div style=""font-size:60px;"">+</div>","null","html-keyboard-response","80","308888","0.0-6.0-0.37","ANBL","1","f","rechts","21","","fixation","","","",""
"838","img/L90_180.png","70","image-keyboard-response","81","309728","0.0-6.0-1.37","ANBL","1","f","rechts","21","","","self","f","90","true"
"null","<div style=""font-size:60px;"">+</div>","null","html-keyboard-response","82","310079","0.0-6.0-0.38","ANBL","1","f","rechts","21","","fixation","","","",""
"954","img/30_90.png","74","image-keyboard-response","83","311036","0.0-6.0-1.38","ANBL","1","f","rechts","21","","","self","j","30","true"
"null","<div style=""font-size:60px;"">+</div>","null","html-keyboard-response","84","311337","0.0-6.0-0.39","ANBL","1","f","rechts","21","","fixation","","","",""
"1326","img/60_210.png","74","image-keyboard-response","85","312665","0.0-6.0-1.39","ANBL","1","f","rechts","21","","","self","j","60","true"
"null","<div style=""font-size:60px;"">+</div>","null","html-keyboard-response","86","313167","0.0-6.0-0.40","ANBL","1","f","rechts","21","","fixation","","","",""
"929","img/90_210.png","74","image-keyboard-response","87","314097","0.0-6.0-1.40","ANBL","1","f","rechts","21","","","self","j","90","true"
"null","<div style=""font-size:60px;"">+</div>","null","html-keyboard-response","88","314449","0.0-6.0-0.41","ANBL","1","f","rechts","21","","fixation","","","",""
"858","img/120_180.png","74","image-keyboard-response","89","315308","0.0-6.0-1.41","ANBL","1","f","rechts","21","","","self","j","120","true"
"null","<div style=""font-size:60px;"">+</div>","null","html-keyboard-response","90","315760","0.0-6.0-0.42","ANBL","1","f","rechts","21","","fixation","","","",""
"820","img/30_300.png","74","image-keyboard-response","91","316582","0.0-6.0-1.42","ANBL","1","f","rechts","21","","","self","f","30","false"
"null","<div style=""font-size:60px;"">+</div>","null","html-keyboard-response","92","317033","0.0-6.0-0.43","ANBL","1","f","rechts","21","","fixation","","","",""
"1264","img/150_180.png","74","image-keyboard-response","93","318298","0.0-6.0-1.43","ANBL","1","f","rechts","21","","","self","j","150","true"
"null","<div style=""font-size:60px;"">+</div>","null","html-keyboard-response","94","318600","0.0-6.0-0.44","ANBL","1","f","rechts","21","","fixation","","","",""
"1070","img/120_270.png","74","image-keyboard-response","95","319671","0.0-6.0-1.44","ANBL","1","f","rechts","21","","","self","j","120","true"
"null","<div style=""font-size:60px;"">+</div>","null","html-keyboard-response","96","320023","0.0-6.0-0.45","ANBL","1","f","rechts","21","","fixation","","","",""
"1373","img/120_90.png","70","image-keyboard-response","97","321397","0.0-6.0-1.45","ANBL","1","f","rechts","21","","","self","f","120","true"
"null","<div style=""font-size:60px;"">+</div>","null","html-keyboard-response","98","321849","0.0-6.0-0.46","ANBL","1","f","rechts","21","","fixation","","","",""
"1094","img/150_300.png","70","image-keyboard-response","99","322944","0.0-6.0-1.46","ANBL","1","f","rechts","21","","","self","j","150","false"
"null","<div style=""font-size:60px;"">+</div>","null","html-keyboard-response","100","323396","0.0-6.0-0.47","ANBL","1","f","rechts","21","","fixation","","","",""
"1748","img/90_120.png","70","image-keyboard-response","101","325145","0.0-6.0-1.47","ANBL","1","f","rechts","21","","","self","f","90","true"
"null","<div style=""font-size:60px;"">+</div>","null","html-keyboard-response","102","325447","0.0-6.0-0.48","ANBL","1","f","rechts","21","","fixation","","","",""
"1280","img/30_60.png","74","image-keyboard-response","103","326728","0.0-6.0-1.48","ANBL","1","f","rechts","21","","","self","j","30","true"
"null","<div style=""font-size:60px;"">+</div>","null","html-keyboard-response","104","327130","0.0-6.0-0.49","ANBL","1","f","rechts","21","","fixation","","","",""
"1402","img/90_180.png","74","image-keyboard-response","105","328533","0.0-6.0-1.49","ANBL","1","f","rechts","21","","","self","j","90","true"
"null","<div style=""font-size:60px;"">+</div>","null","html-keyboard-response","106","328835","0.0-6.0-0.50","ANBL","1","f","rechts","21","","fixation","","","",""
"1881","img/90_300.png","70","image-keyboard-response","107","330717","0.0-6.0-1.50","ANBL","1","f","rechts","21","","","self","f","90","true"
"null","<div style=""font-size:60px;"">+</div>","null","html-keyboard-response","108","331169","0.0-6.0-0.51","ANBL","1","f","rechts","21","","fixation","","","",""
"1849","img/0_150.png","74","image-keyboard-response","109","333019","0.0-6.0-1.51","ANBL","1","f","rechts","21","","","self","j","0","true"
"null","<div style=""font-size:60px;"">+</div>","null","html-keyboard-response","110","333521","0.0-6.0-0.52","ANBL","1","f","rechts","21","","fixation","","","",""
"990","img/L120_180.png","70","image-keyboard-response","111","334512","0.0-6.0-1.52","ANBL","1","f","rechts","21","","","self","f","120","true"
"null","<div style=""font-size:60px;"">+</div>","null","html-keyboard-response","112","334964","0.0-6.0-0.53","ANBL","1","f","rechts","21","","fixation","","","",""
"1254","img/90_240.png","74","image-keyboard-response","113","336218","0.0-6.0-1.53","ANBL","1","f","rechts","21","","","self","j","90","true"
"null","<div style=""font-size:60px;"">+</div>","null","html-keyboard-response","114","336620","0.0-6.0-0.54","ANBL","1","f","rechts","21","","fixation","","","",""
"830","img/30_180.png","74","image-keyboard-response","115","337450","0.0-6.0-1.54","ANBL","1","f","rechts","21","","","self","j","30","true"
"null","<div style=""font-size:60px;"">+</div>","null","html-keyboard-response","116","337802","0.0-6.0-0.55","ANBL","1","f","rechts","21","","fixation","","","",""
"1351","img/0_270.png","70","image-keyboard-response","117","339153","0.0-6.0-1.55","ANBL","1","f","rechts","21","","","self","f","0","true"
"null","<div style=""font-size:60px;"">+</div>","null","html-keyboard-response","118","339505","0.0-6.0-0.56","ANBL","1","f","rechts","21","","fixation","","","",""
"921","img/L150_180.png","70","image-keyboard-response","119","340426","0.0-6.0-1.56","ANBL","1","f","rechts","21","","","self","f","150","true"
"null","<div style=""font-size:60px;"">+</div>","null","html-keyboard-response","120","340728","0.0-6.0-0.57","ANBL","1","f","rechts","21","","fixation","","","",""
"2221","img/120_330.png","70","image-keyboard-response","121","342949","0.0-6.0-1.57","ANBL","1","f","rechts","21","","","self","f","120","true"
"null","<div style=""font-size:60px;"">+</div>","null","html-keyboard-response","122","343301","0.0-6.0-0.58","ANBL","1","f","rechts","21","","fixation","","","",""
"1966","img/150_60.png","70","image-keyboard-response","123","345267","0.0-6.0-1.58","ANBL","1","f","rechts","21","","","self","f","150","true"
"null","<div style=""font-size:60px;"">+</div>","null","html-keyboard-response","124","345619","0.0-6.0-0.59","ANBL","1","f","rechts","21","","fixation","","","",""
"1695","img/150_180.png","74","image-keyboard-response","125","347316","0.0-6.0-1.59","ANBL","1","f","rechts","21","","","self","j","150","true"
"null","<div style=""font-size:60px;"">+</div>","null","html-keyboard-response","126","347717","0.0-6.0-0.60","ANBL","1","f","rechts","21","","fixation","","","",""
"1844","img/L90_180.png","70","image-keyboard-response","127","349563","0.0-6.0-1.60","ANBL","1","f","rechts","21","","","self","f","90","true"
"null","<div style=""font-size:60px;"">+</div>","null","html-keyboard-response","128","349864","0.0-6.0-0.61","ANBL","1","f","rechts","21","","fixation","","","",""
"1889","img/90_300.png","70","image-keyboard-response","129","351754","0.0-6.0-1.61","ANBL","1","f","rechts","21","","","self","f","90","true"
"null","<div style=""font-size:60px;"">+</div>","null","html-keyboard-response","130","352105","0.0-6.0-0.62","ANBL","1","f","rechts","21","","fixation","","","",""
"1317","img/L60_180.png","70","image-keyboard-response","131","353424","0.0-6.0-1.62","ANBL","1","f","rechts","21","","","self","f","60","true"
"null","<div style=""font-size:60px;"">+</div>","null","html-keyboard-response","132","353925","0.0-6.0-0.63","ANBL","1","f","rechts","21","","fixation","","","",""
"1089","img/150_270.png","74","image-keyboard-response","133","355015","0.0-6.0-1.63","ANBL","1","f","rechts","21","","","self","j","150","true"
"null","<div style=""font-size:60px;"">+</div>","null","html-keyboard-response","134","355466","0.0-6.0-0.64","ANBL","1","f","rechts","21","","fixation","","","",""
"1237","img/150_90.png","70","image-keyboard-response","135","356704","0.0-6.0-1.64","ANBL","1","f","rechts","21","","","self","f","150","true"
"null","<div style=""font-size:60px;"">+</div>","null","html-keyboard-response","136","357005","0.0-6.0-0.65","ANBL","1","f","rechts","21","","fixation","","","",""
"634","img/0_330.png","70","image-keyboard-response","137","357640","0.0-6.0-1.65","ANBL","1","f","rechts","21","","","self","f","0","true"
"null","<div style=""font-size:60px;"">+</div>","null","html-keyboard-response","138","357941","0.0-6.0-0.66","ANBL","1","f","rechts","21","","fixation","","","",""
"1505","img/60_270.png","74","image-keyboard-response","139","359447","0.0-6.0-1.66","ANBL","1","f","rechts","21","","","self","f","60","false"
"null","<div style=""font-size:60px;"">+</div>","null","html-keyboard-response","140","359799","0.0-6.0-0.67","ANBL","1","f","rechts","21","","fixation","","","",""
"696","img/0_240.png","70","image-keyboard-response","141","360496","0.0-6.0-1.67","ANBL","1","f","rechts","21","","","self","f","0","true"
"null","<div style=""font-size:60px;"">+</div>","null","html-keyboard-response","142","360998","0.0-6.0-0.68","ANBL","1","f","rechts","21","","fixation","","","",""
"1502","img/30_240.png","74","image-keyboard-response","143","362501","0.0-6.0-1.68","ANBL","1","f","rechts","21","","","self","f","30","false"
"null","<div style=""font-size:60px;"">+</div>","null","html-keyboard-response","144","362903","0.0-6.0-0.69","ANBL","1","f","rechts","21","","fixation","","","",""
"830","img/90_150.png","70","image-keyboard-response","145","363734","0.0-6.0-1.69","ANBL","1","f","rechts","21","","","self","f","90","true"
"null","<div style=""font-size:60px;"">+</div>","null","html-keyboard-response","146","364086","0.0-6.0-0.70","ANBL","1","f","rechts","21","","fixation","","","",""
"876","img/0_30.png","74","image-keyboard-response","147","364963","0.0-6.0-1.70","ANBL","1","f","rechts","21","","","self","j","0","true"
"null","<div style=""font-size:60px;"">+</div>","null","html-keyboard-response","148","365315","0.0-6.0-0.71","ANBL","1","f","rechts","21","","fixation","","","",""
"1312","img/120_270.png","74","image-keyboard-response","149","366628","0.0-6.0-1.71","ANBL","1","f","rechts","21","","","self","j","120","true"
"null","<div style=""font-size:60px;"">+</div>","null","html-keyboard-response","150","367130","0.0-6.0-0.72","ANBL","1","f","rechts","21","","fixation","","","",""
"1105","img/120_90.png","70","image-keyboard-response","151","368235","0.0-6.0-1.72","ANBL","1","f","rechts","21","","","self","f","120","true"
"null","<div style=""font-size:60px;"">+</div>","null","html-keyboard-response","152","368687","0.0-6.0-0.73","ANBL","1","f","rechts","21","","fixation","","","",""
"1134","img/120_150.png","70","image-keyboard-response","153","369822","0.0-6.0-1.73","ANBL","1","f","rechts","21","","","self","f","120","true"
"null","<div style=""font-size:60px;"">+</div>","null","html-keyboard-response","154","370124","0.0-6.0-0.74","ANBL","1","f","rechts","21","","fixation","","","",""
"1972","img/60_30.png","74","image-keyboard-response","155","372096","0.0-6.0-1.74","ANBL","1","f","rechts","21","","","self","j","60","true"
"null","<div style=""font-size:60px;"">+</div>","null","html-keyboard-response","156","372598","0.0-6.0-0.75","ANBL","1","f","rechts","21","","fixation","","","",""
"1104","img/30_60.png","74","image-keyboard-response","157","373702","0.0-6.0-1.75","ANBL","1","f","rechts","21","","","self","j","30","true"
"null","<div style=""font-size:60px;"">+</div>","null","html-keyboard-response","158","374154","0.0-6.0-0.76","ANBL","1","f","rechts","21","","fixation","","","",""
"1067","img/30_270.png","70","image-keyboard-response","159","375222","0.0-6.0-1.76","ANBL","1","f","rechts","21","","","self","f","30","true"
"null","<div style=""font-size:60px;"">+</div>","null","html-keyboard-response","160","375524","0.0-6.0-0.77","ANBL","1","f","rechts","21","","fixation","","","",""
"1292","img/L30_180.png","70","image-keyboard-response","161","376816","0.0-6.0-1.77","ANBL","1","f","rechts","21","","","self","f","30","true"
"null","<div style=""font-size:60px;"">+</div>","null","html-keyboard-response","162","377218","0.0-6.0-0.78","ANBL","1","f","rechts","21","","fixation","","","",""
"1139","img/150_240.png","74","image-keyboard-response","163","378357","0.0-6.0-1.78","ANBL","1","f","rechts","21","","","self","j","150","true"
"null","<div style=""font-size:60px;"">+</div>","null","html-keyboard-response","164","378759","0.0-6.0-0.79","ANBL","1","f","rechts","21","","fixation","","","",""
"1178","img/90_180.png","74","image-keyboard-response","165","379937","0.0-6.0-1.79","ANBL","1","f","rechts","21","","","self","j","90","true"
"null","<div style=""font-size:60px;"">+</div>","null","html-keyboard-response","166","380338","0.0-6.0-0.80","ANBL","1","f","rechts","21","","fixation","","","",""
"1775","img/30_90.png","74","image-keyboard-response","167","382114","0.0-6.0-1.80","ANBL","1","f","rechts","21","","","self","j","30","true"
"null","<div style=""font-size:60px;"">+</div>","null","html-keyboard-response","168","382616","0.0-6.0-0.81","ANBL","1","f","rechts","21","","fixation","","","",""
"822","img/0_300.png","70","image-keyboard-response","169","383438","0.0-6.0-1.81","ANBL","1","f","rechts","21","","","self","f","0","true"
"null","<div style=""font-size:60px;"">+</div>","null","html-keyboard-response","170","383890","0.0-6.0-0.82","ANBL","1","f","rechts","21","","fixation","","","",""
"730","img/0_90.png","74","image-keyboard-response","171","384620","0.0-6.0-1.82","ANBL","1","f","rechts","21","","","self","j","0","true"
"null","<div style=""font-size:60px;"">+</div>","null","html-keyboard-response","172","385121","0.0-6.0-0.83","ANBL","1","f","rechts","21","","fixation","","","",""
"766","img/0_60.png","74","image-keyboard-response","173","385888","0.0-6.0-1.83","ANBL","1","f","rechts","21","","","self","j","0","true"
"null","<div style=""font-size:60px;"">+</div>","null","html-keyboard-response","174","386290","0.0-6.0-0.84","ANBL","1","f","rechts","21","","fixation","","","",""
"1214","img/30_300.png","74","image-keyboard-response","175","387504","0.0-6.0-1.84","ANBL","1","f","rechts","21","","","self","f","30","false"
"null","<div style=""font-size:60px;"">+</div>","null","html-keyboard-response","176","387855","0.0-6.0-0.85","ANBL","1","f","rechts","21","","fixation","","","",""
"1510","img/150_120.png","70","image-keyboard-response","177","389366","0.0-6.0-1.85","ANBL","1","f","rechts","21","","","self","f","150","true"
"null","<div style=""font-size:60px;"">+</div>","null","html-keyboard-response","178","389767","0.0-6.0-0.86","ANBL","1","f","rechts","21","","fixation","","","",""
"1607","img/30_120.png","74","image-keyboard-response","179","391376","0.0-6.0-1.86","ANBL","1","f","rechts","21","","","self","j","30","true"
"null","<div style=""font-size:60px;"">+</div>","null","html-keyboard-response","180","391677","0.0-6.0-0.87","ANBL","1","f","rechts","21","","fixation","","","",""
"904","img/60_150.png","70","image-keyboard-response","181","392582","0.0-6.0-1.87","ANBL","1","f","rechts","21","","","self","f","60","true"
"null","<div style=""font-size:60px;"">+</div>","null","html-keyboard-response","182","393083","0.0-6.0-0.88","ANBL","1","f","rechts","21","","fixation","","","",""
"1336","img/90_330.png","70","image-keyboard-response","183","394421","0.0-6.0-1.88","ANBL","1","f","rechts","21","","","self","f","90","true"
"null","<div style=""font-size:60px;"">+</div>","null","html-keyboard-response","184","394822","0.0-6.0-0.89","ANBL","1","f","rechts","21","","fixation","","","",""
"934","img/90_30.png","74","image-keyboard-response","185","395758","0.0-6.0-1.89","ANBL","1","f","rechts","21","","","self","j","90","true"
"null","<div style=""font-size:60px;"">+</div>","null","html-keyboard-response","186","396109","0.0-6.0-0.90","ANBL","1","f","rechts","21","","fixation","","","",""
"1257","img/150_300.png","74","image-keyboard-response","187","397367","0.0-6.0-1.90","ANBL","1","f","rechts","21","","","self","j","150","true"
"null","<div style=""font-size:60px;"">+</div>","null","html-keyboard-response","188","397869","0.0-6.0-0.91","ANBL","1","f","rechts","21","","fixation","","","",""
"919","img/0_150.png","74","image-keyboard-response","189","398789","0.0-6.0-1.91","ANBL","1","f","rechts","21","","","self","j","0","true"
"null","<div style=""font-size:60px;"">+</div>","null","html-keyboard-response","190","399241","0.0-6.0-0.92","ANBL","1","f","rechts","21","","fixation","","","",""
"1240","img/90_210.png","74","image-keyboard-response","191","400482","0.0-6.0-1.92","ANBL","1","f","rechts","21","","","self","j","90","true"
"null","<div style=""font-size:60px;"">+</div>","null","html-keyboard-response","192","400883","0.0-6.0-0.93","ANBL","1","f","rechts","21","","fixation","","","",""
"955","img/120_210.png","74","image-keyboard-response","193","401840","0.0-6.0-1.93","ANBL","1","f","rechts","21","","","self","j","120","true"
"null","<div style=""font-size:60px;"">+</div>","null","html-keyboard-response","194","402341","0.0-6.0-0.94","ANBL","1","f","rechts","21","","fixation","","","",""
"728","img/0_210.png","70","image-keyboard-response","195","403071","0.0-6.0-1.94","ANBL","1","f","rechts","21","","","self","f","0","true"
"null","<div style=""font-size:60px;"">+</div>","null","html-keyboard-response","196","403472","0.0-6.0-0.95","ANBL","1","f","rechts","21","","fixation","","","",""
"1053","img/90_60.png","74","image-keyboard-response","197","404526","0.0-6.0-1.95","ANBL","1","f","rechts","21","","","self","j","90","true"
"null","<div style=""font-size:60px;"">+</div>","null","html-keyboard-response","198","405028","0.0-6.0-0.96","ANBL","1","f","rechts","21","","fixation","","","",""
"1287","img/60_180.png","74","image-keyboard-response","199","406316","0.0-6.0-1.96","ANBL","1","f","rechts","21","","","self","j","60","true"
"null","<div style=""font-size:60px;"">+</div>","null","html-keyboard-response","200","406668","0.0-6.0-0.97","ANBL","1","f","rechts","21","","fixation","","","",""
"937","img/60_330.png","70","image-keyboard-response","201","407607","0.0-6.0-1.97","ANBL","1","f","rechts","21","","","self","f","60","true"
"null","<div style=""font-size:60px;"">+</div>","null","html-keyboard-response","202","408108","0.0-6.0-0.98","ANBL","1","f","rechts","21","","fixation","","","",""
"1298","img/60_90.png","74","image-keyboard-response","203","409407","0.0-6.0-1.98","ANBL","1","f","rechts","21","","","self","j","60","true"
"null","<div style=""font-size:60px;"">+</div>","null","html-keyboard-response","204","409809","0.0-6.0-0.99","ANBL","1","f","rechts","21","","fixation","","","",""
"1100","img/120_180.png","74","image-keyboard-response","205","410910","0.0-6.0-1.99","ANBL","1","f","rechts","21","","","self","j","120","true"
"null","<div style=""font-size:60px;"">+</div>","null","html-keyboard-response","206","411362","0.0-6.0-0.100","ANBL","1","f","rechts","21","","fixation","","","",""
"753","img/0_120.png","74","image-keyboard-response","207","412116","0.0-6.0-1.100","ANBL","1","f","rechts","21","","","self","j","0","true"
"null","<div style=""font-size:60px;"">+</div>","null","html-keyboard-response","208","412418","0.0-6.0-0.101","ANBL","1","f","rechts","21","","fixation","","","",""
"1177","img/60_210.png","74","image-keyboard-response","209","413596","0.0-6.0-1.101","ANBL","1","f","rechts","21","","","self","j","60","true"
"null","<div style=""font-size:60px;"">+</div>","null","html-keyboard-response","210","413948","0.0-6.0-0.102","ANBL","1","f","rechts","21","","fixation","","","",""
"1017","img/120_30.png","70","image-keyboard-response","211","414966","0.0-6.0-1.102","ANBL","1","f","rechts","21","","","self","j","120","false"
"null","<div style=""font-size:60px;"">+</div>","null","html-keyboard-response","212","415368","0.0-6.0-0.103","ANBL","1","f","rechts","21","","fixation","","","",""
"1222","img/90_120.png","70","image-keyboard-response","213","416591","0.0-6.0-1.103","ANBL","1","f","rechts","21","","","self","f","90","true"
"null","<div style=""font-size:60px;"">+</div>","null","html-keyboard-response","214","417043","0.0-6.0-0.104","ANBL","1","f","rechts","21","","fixation","","","",""
"1164","img/150_60.png","70","image-keyboard-response","215","418208","0.0-6.0-1.104","ANBL","1","f","rechts","21","","","self","f","150","true"
"null","<div style=""font-size:60px;"">+</div>","null","html-keyboard-response","216","418610","0.0-6.0-0.105","ANBL","1","f","rechts","21","","fixation","","","",""
"1695","img/150_180.png","74","image-keyboard-response","217","420306","0.0-6.0-1.105","ANBL","1","f","rechts","21","","","self","j","150","true"
"null","<div style=""font-size:60px;"">+</div>","null","html-keyboard-response","218","420658","0.0-6.0-0.106","ANBL","1","f","rechts","21","","fixation","","","",""
"null","img/120_270.png","null","image-keyboard-response","219","423660","0.0-6.0-1.106","ANBL","1","f","rechts","21","","","self","j","120","false"
"null","<div style=""font-size:60px;"">+</div>","null","html-keyboard-response","220","424162","0.0-6.0-0.107","ANBL","1","f","rechts","21","","fixation","","","",""
"773","img/0_30.png","74","image-keyboard-response","221","424936","0.0-6.0-1.107","ANBL","1","f","rechts","21","","","self","j","0","true"
"null","<div style=""font-size:60px;"">+</div>","null","html-keyboard-response","222","425438","0.0-6.0-0.108","ANBL","1","f","rechts","21","","fixation","","","",""
"1334","img/150_270.png","74","image-keyboard-response","223","426774","0.0-6.0-1.108","ANBL","1","f","rechts","21","","","self","j","150","true"
"null","<div style=""font-size:60px;"">+</div>","null","html-keyboard-response","224","427225","0.0-6.0-0.109","ANBL","1","f","rechts","21","","fixation","","","",""
"1875","img/120_330.png","70","image-keyboard-response","225","429102","0.0-6.0-1.109","ANBL","1","f","rechts","21","","","self","f","120","true"
"null","<div style=""font-size:60px;"">+</div>","null","html-keyboard-response","226","429603","0.0-6.0-0.110","ANBL","1","f","rechts","21","","fixation","","","",""
"1557","img/30_60.png","74","image-keyboard-response","227","431161","0.0-6.0-1.110","ANBL","1","f","rechts","21","","","self","j","30","true"
"null","<div style=""font-size:60px;"">+</div>","null","html-keyboard-response","228","431613","0.0-6.0-0.111","ANBL","1","f","rechts","21","","fixation","","","",""
"1180","img/90_330.png","70","image-keyboard-response","229","432794","0.0-6.0-1.111","ANBL","1","f","rechts","21","","","self","f","90","true"
"null","<div style=""font-size:60px;"">+</div>","null","html-keyboard-response","230","433146","0.0-6.0-0.112","ANBL","1","f","rechts","21","","fixation","","","",""
"798","img/0_330.png","70","image-keyboard-response","231","433945","0.0-6.0-1.112","ANBL","1","f","rechts","21","","","self","f","0","true"
"null","<div style=""font-size:60px;"">+</div>","null","html-keyboard-response","232","434246","0.0-6.0-0.113","ANBL","1","f","rechts","21","","fixation","","","",""
"1364","img/30_120.png","74","image-keyboard-response","233","435610","0.0-6.0-1.113","ANBL","1","f","rechts","21","","","self","j","30","true"
"null","<div style=""font-size:60px;"">+</div>","null","html-keyboard-response","234","436011","0.0-6.0-0.114","ANBL","1","f","rechts","21","","fixation","","","",""
"994","img/0_270.png","70","image-keyboard-response","235","437006","0.0-6.0-1.114","ANBL","1","f","rechts","21","","","self","f","0","true"
"null","<div style=""font-size:60px;"">+</div>","null","html-keyboard-response","236","437358","0.0-6.0-0.115","ANBL","1","f","rechts","21","","fixation","","","",""
"1681","img/L150_180.png","70","image-keyboard-response","237","439040","0.0-6.0-1.115","ANBL","1","f","rechts","21","","","self","f","150","true"
"null","<div style=""font-size:60px;"">+</div>","null","html-keyboard-response","238","439491","0.0-6.0-0.116","ANBL","1","f","rechts","21","","fixation","","","",""
"2189","img/30_270.png","70","image-keyboard-response","239","441681","0.0-6.0-1.116","ANBL","1","f","rechts","21","","","self","f","30","true"
"null","<div style=""font-size:60px;"">+</div>","null","html-keyboard-response","240","442083","0.0-6.0-0.117","ANBL","1","f","rechts","21","","fixation","","","",""
"1346","img/120_30.png","74","image-keyboard-response","241","443430","0.0-6.0-1.117","ANBL","1","f","rechts","21","","","self","j","120","true"
"null","<div style=""font-size:60px;"">+</div>","null","html-keyboard-response","242","443832","0.0-6.0-0.118","ANBL","1","f","rechts","21","","fixation","","","",""
"968","img/L30_180.png","70","image-keyboard-response","243","444801","0.0-6.0-1.118","ANBL","1","f","rechts","21","","","self","f","30","true"
"null","<div style=""font-size:60px;"">+</div>","null","html-keyboard-response","244","445203","0.0-6.0-0.119","ANBL","1","f","rechts","21","","fixation","","","",""
"1302","img/120_150.png","70","image-keyboard-response","245","446506","0.0-6.0-1.119","ANBL","1","f","rechts","21","","","self","f","120","true"
"null","<div style=""font-size:60px;"">+</div>","null","html-keyboard-response","246","446958","0.0-6.0-0.120","ANBL","1","f","rechts","21","","fixation","","","",""
"1316","img/0_210.png","70","image-keyboard-response","247","448275","0.0-6.0-1.120","ANBL","1","f","rechts","21","","","self","f","0","true"
"null","<div style=""font-size:60px;"">+</div>","null","html-keyboard-response","248","448627","0.0-6.0-0.121","ANBL","1","f","rechts","21","","fixation","","","",""
"1250","img/90_30.png","74","image-keyboard-response","249","449878","0.0-6.0-1.121","ANBL","1","f","rechts","21","","","self","j","90","true"
"null","<div style=""font-size:60px;"">+</div>","null","html-keyboard-response","250","450280","0.0-6.0-0.122","ANBL","1","f","rechts","21","","fixation","","","",""
"1078","img/90_210.png","74","image-keyboard-response","251","451359","0.0-6.0-1.122","ANBL","1","f","rechts","21","","","self","j","90","true"
"null","<div style=""font-size:60px;"">+</div>","null","html-keyboard-response","252","451810","0.0-6.0-0.123","ANBL","1","f","rechts","21","","fixation","","","",""
"1226","img/150_240.png","74","image-keyboard-response","253","453037","0.0-6.0-1.123","ANBL","1","f","rechts","21","","","self","j","150","true"
"null","<div style=""font-size:60px;"">+</div>","null","html-keyboard-response","254","453439","0.0-6.0-0.124","ANBL","1","f","rechts","21","","fixation","","","",""
"1469","img/L120_180.png","70","image-keyboard-response","255","454908","0.0-6.0-1.124","ANBL","1","f","rechts","21","","","self","f","120","true"
"null","<div style=""font-size:60px;"">+</div>","null","html-keyboard-response","256","455409","0.0-6.0-0.125","ANBL","1","f","rechts","21","","fixation","","","",""
"714","img/0_300.png","70","image-keyboard-response","257","456124","0.0-6.0-1.125","ANBL","1","f","rechts","21","","","self","f","0","true"
"null","<div style=""font-size:60px;"">+</div>","null","html-keyboard-response","258","456426","0.0-6.0-0.126","ANBL","1","f","rechts","21","","fixation","","","",""
"796","img/0_150.png","74","image-keyboard-response","259","457222","0.0-6.0-1.126","ANBL","1","f","rechts","21","","","self","j","0","true"
"null","<div style=""font-size:60px;"">+</div>","null","html-keyboard-response","260","457574","0.0-6.0-0.127","ANBL","1","f","rechts","21","","fixation","","","",""
"1076","img/L60_180.png","70","image-keyboard-response","261","458650","0.0-6.0-1.127","ANBL","1","f","rechts","21","","","self","f","60","true"
"null","<div style=""font-size:60px;"">+</div>","null","html-keyboard-response","262","458952","0.0-6.0-0.128","ANBL","1","f","rechts","21","","fixation","","","",""
"928","img/0_60.png","74","image-keyboard-response","263","459881","0.0-6.0-1.128","ANBL","1","f","rechts","21","","","self","j","0","true"
"null","<div style=""font-size:60px;"">+</div>","null","html-keyboard-response","264","460233","0.0-6.0-0.129","ANBL","1","f","rechts","21","","fixation","","","",""
"845","img/120_180.png","74","image-keyboard-response","265","461078","0.0-6.0-1.129","ANBL","1","f","rechts","21","","","self","j","120","true"
"null","<div style=""font-size:60px;"">+</div>","null","html-keyboard-response","266","461430","0.0-6.0-0.130","ANBL","1","f","rechts","21","","fixation","","","",""
"1093","img/60_180.png","74","image-keyboard-response","267","462524","0.0-6.0-1.130","ANBL","1","f","rechts","21","","","self","j","60","true"
"null","<div style=""font-size:60px;"">+</div>","null","html-keyboard-response","268","462875","0.0-6.0-0.131","ANBL","1","f","rechts","21","","fixation","","","",""
"1407","img/150_300.png","74","image-keyboard-response","269","464283","0.0-6.0-1.131","ANBL","1","f","rechts","21","","","self","j","150","true"
"null","<div style=""font-size:60px;"">+</div>","null","html-keyboard-response","270","464735","0.0-6.0-0.132","ANBL","1","f","rechts","21","","fixation","","","",""
"935","img/60_150.png","70","image-keyboard-response","271","465671","0.0-6.0-1.132","ANBL","1","f","rechts","21","","","self","f","60","true"
"null","<div style=""font-size:60px;"">+</div>","null","html-keyboard-response","272","465973","0.0-6.0-0.133","ANBL","1","f","rechts","21","","fixation","","","",""
"1229","img/60_30.png","74","image-keyboard-response","273","467203","0.0-6.0-1.133","ANBL","1","f","rechts","21","","","self","j","60","true"
"null","<div style=""font-size:60px;"">+</div>","null","html-keyboard-response","274","467604","0.0-6.0-0.134","ANBL","1","f","rechts","21","","fixation","","","",""
"1509","img/30_240.png","70","image-keyboard-response","275","469115","0.0-6.0-1.134","ANBL","1","f","rechts","21","","","self","f","30","true"
"null","<div style=""font-size:60px;"">+</div>","null","html-keyboard-response","276","469616","0.0-6.0-0.135","ANBL","1","f","rechts","21","","fixation","","","",""
"1448","img/60_210.png","74","image-keyboard-response","277","471066","0.0-6.0-1.135","ANBL","1","f","rechts","21","","","self","j","60","true"
"null","<div style=""font-size:60px;"">+</div>","null","html-keyboard-response","278","471567","0.0-6.0-0.136","ANBL","1","f","rechts","21","","fixation","","","",""
"1672","img/60_270.png","70","image-keyboard-response","279","473240","0.0-6.0-1.136","ANBL","1","f","rechts","21","","","self","f","60","true"
"null","<div style=""font-size:60px;"">+</div>","null","html-keyboard-response","280","473742","0.0-6.0-0.137","ANBL","1","f","rechts","21","","fixation","","","",""
"1567","img/90_180.png","74","image-keyboard-response","281","475311","0.0-6.0-1.137","ANBL","1","f","rechts","21","","","self","j","90","true"
"null","<div style=""font-size:60px;"">+</div>","null","html-keyboard-response","282","475612","0.0-6.0-0.138","ANBL","1","f","rechts","21","","fixation","","","",""
"1757","img/L90_180.png","70","image-keyboard-response","283","477371","0.0-6.0-1.138","ANBL","1","f","rechts","21","","","self","f","90","true"
"null","<div style=""font-size:60px;"">+</div>","null","html-keyboard-response","284","477722","0.0-6.0-0.139","ANBL","1","f","rechts","21","","fixation","","","",""
"2452","img/30_90.png","74","image-keyboard-response","285","480175","0.0-6.0-1.139","ANBL","1","f","rechts","21","","","self","j","30","true"
"null","<div style=""font-size:60px;"">+</div>","null","html-keyboard-response","286","480677","0.0-6.0-0.140","ANBL","1","f","rechts","21","","fixation","","","",""
"1609","img/120_210.png","74","image-keyboard-response","287","482287","0.0-6.0-1.140","ANBL","1","f","rechts","21","","","self","j","120","true"
"null","<div style=""font-size:60px;"">+</div>","null","html-keyboard-response","288","482589","0.0-6.0-0.141","ANBL","1","f","rechts","21","","fixation","","","",""
"1775","img/90_300.png","70","image-keyboard-response","289","484365","0.0-6.0-1.141","ANBL","1","f","rechts","21","","","self","f","90","true"
"null","<div style=""font-size:60px;"">+</div>","null","html-keyboard-response","290","484667","0.0-6.0-0.142","ANBL","1","f","rechts","21","","fixation","","","",""
"1173","img/30_180.png","74","image-keyboard-response","291","485841","0.0-6.0-1.142","ANBL","1","f","rechts","21","","","self","j","30","true"
"null","<div style=""font-size:60px;"">+</div>","null","html-keyboard-response","292","486143","0.0-6.0-0.143","ANBL","1","f","rechts","21","","fixation","","","",""
"1476","img/120_90.png","70","image-keyboard-response","293","487620","0.0-6.0-1.143","ANBL","1","f","rechts","21","","","self","f","120","true"
"null","<div style=""font-size:60px;"">+</div>","null","html-keyboard-response","294","487922","0.0-6.0-0.144","ANBL","1","f","rechts","21","","fixation","","","",""
"1328","img/30_300.png","70","image-keyboard-response","295","489251","0.0-6.0-1.144","ANBL","1","f","rechts","21","","","self","f","30","true"
"null","<div style=""font-size:60px;"">+</div>","null","html-keyboard-response","296","489603","0.0-6.0-0.145","ANBL","1","f","rechts","21","","fixation","","","",""
"1427","img/90_150.png","70","image-keyboard-response","297","491031","0.0-6.0-1.145","ANBL","1","f","rechts","21","","","self","f","90","true"
"null","<div style=""font-size:60px;"">+</div>","null","html-keyboard-response","298","491333","0.0-6.0-0.146","ANBL","1","f","rechts","21","","fixation","","","",""
"1209","img/60_330.png","70","image-keyboard-response","299","492543","0.0-6.0-1.146","ANBL","1","f","rechts","21","","","self","f","60","true"
"null","<div style=""font-size:60px;"">+</div>","null","html-keyboard-response","300","492995","0.0-6.0-0.147","ANBL","1","f","rechts","21","","fixation","","","",""
"1469","img/90_120.png","70","image-keyboard-response","301","494465","0.0-6.0-1.147","ANBL","1","f","rechts","21","","","self","f","90","true"
"null","<div style=""font-size:60px;"">+</div>","null","html-keyboard-response","302","494967","0.0-6.0-0.148","ANBL","1","f","rechts","21","","fixation","","","",""
"1107","img/150_120.png","70","image-keyboard-response","303","496075","0.0-6.0-1.148","ANBL","1","f","rechts","21","","","self","f","150","true"
"null","<div style=""font-size:60px;"">+</div>","null","html-keyboard-response","304","496377","0.0-6.0-0.149","ANBL","1","f","rechts","21","","fixation","","","",""
"818","img/0_120.png","74","image-keyboard-response","305","497195","0.0-6.0-1.149","ANBL","1","f","rechts","21","","","self","j","0","true"
"null","<div style=""font-size:60px;"">+</div>","null","html-keyboard-response","306","497547","0.0-6.0-0.150","ANBL","1","f","rechts","21","","fixation","","","",""
"1212","img/90_240.png","70","image-keyboard-response","307","498759","0.0-6.0-1.150","ANBL","1","f","rechts","21","","","self","j","90","false"
"null","<div style=""font-size:60px;"">+</div>","null","html-keyboard-response","308","499261","0.0-6.0-0.151","ANBL","1","f","rechts","21","","fixation","","","",""
"866","img/0_240.png","70","image-keyboard-response","309","500127","0.0-6.0-1.151","ANBL","1","f","rechts","21","","","self","f","0","true"
"null","<div style=""font-size:60px;"">+</div>","null","html-keyboard-response","310","500529","0.0-6.0-0.152","ANBL","1","f","rechts","21","","fixation","","","",""
"1119","img/60_90.png","74","image-keyboard-response","311","501648","0.0-6.0-1.152","ANBL","1","f","rechts","21","","","self","j","60","true"
"null","<div style=""font-size:60px;"">+</div>","null","html-keyboard-response","312","502150","0.0-6.0-0.153","ANBL","1","f","rechts","21","","fixation","","","",""
"2106","img/90_60.png","74","image-keyboard-response","313","504256","0.0-6.0-1.153","ANBL","1","f","rechts","21","","","self","j","90","true"
"null","<div style=""font-size:60px;"">+</div>","null","html-keyboard-response","314","504608","0.0-6.0-0.154","ANBL","1","f","rechts","21","","fixation","","","",""
"765","img/0_90.png","74","image-keyboard-response","315","505373","0.0-6.0-1.154","ANBL","1","f","rechts","21","","","self","j","0","true"
"null","<div style=""font-size:60px;"">+</div>","null","html-keyboard-response","316","505774","0.0-6.0-0.155","ANBL","1","f","rechts","21","","fixation","","","",""
"1360","img/150_90.png","70","image-keyboard-response","317","507135","0.0-6.0-1.155","ANBL","1","f","rechts","21","","","self","f","150","true"
"null","<div style=""font-size:60px;"">+</div>","null","html-keyboard-response","318","507437","0.0-6.0-0.156","ANBL","1","f","rechts","21","","fixation","","","",""
"943","img/L30_180.png","70","image-keyboard-response","319","508381","0.0-6.0-1.156","ANBL","1","f","rechts","21","","","self","f","30","true"
"null","<div style=""font-size:60px;"">+</div>","null","html-keyboard-response","320","508682","0.0-6.0-0.157","ANBL","1","f","rechts","21","","fixation","","","",""
"1369","img/30_90.png","74","image-keyboard-response","321","510053","0.0-6.0-1.157","ANBL","1","f","rechts","21","","","self","j","30","true"
"null","<div style=""font-size:60px;"">+</div>","null","html-keyboard-response","322","510354","0.0-6.0-0.158","ANBL","1","f","rechts","21","","fixation","","","",""
"1514","img/90_330.png","70","image-keyboard-response","323","511869","0.0-6.0-1.158","ANBL","1","f","rechts","21","","","self","f","90","true"
"null","<div style=""font-size:60px;"">+</div>","null","html-keyboard-response","324","512321","0.0-6.0-0.159","ANBL","1","f","rechts","21","","fixation","","","",""
"2225","img/60_270.png","74","image-keyboard-response","325","514546","0.0-6.0-1.159","ANBL","1","f","rechts","21","","","self","f","60","false"
"null","<div style=""font-size:60px;"">+</div>","null","html-keyboard-response","326","514897","0.0-6.0-0.160","ANBL","1","f","rechts","21","","fixation","","","",""
"1218","img/L120_180.png","70","image-keyboard-response","327","516116","0.0-6.0-1.160","ANBL","1","f","rechts","21","","","self","f","120","true"
"null","<div style=""font-size:60px;"">+</div>","null","html-keyboard-response","328","516517","0.0-6.0-0.161","ANBL","1","f","rechts","21","","fixation","","","",""
"1882","img/120_90.png","70","image-keyboard-response","329","518401","0.0-6.0-1.161","ANBL","1","f","rechts","21","","","self","f","120","true"
"null","<div style=""font-size:60px;"">+</div>","null","html-keyboard-response","330","518802","0.0-6.0-0.162","ANBL","1","f","rechts","21","","fixation","","","",""
"1354","img/150_120.png","70","image-keyboard-response","331","520157","0.0-6.0-1.162","ANBL","1","f","rechts","21","","","self","f","150","true"
"null","<div style=""font-size:60px;"">+</div>","null","html-keyboard-response","332","520509","0.0-6.0-0.163","ANBL","1","f","rechts","21","","fixation","","","",""
"1738","img/30_120.png","74","image-keyboard-response","333","522248","0.0-6.0-1.163","ANBL","1","f","rechts","21","","","self","j","30","true"
"null","<div style=""font-size:60px;"">+</div>","null","html-keyboard-response","334","522549","0.0-6.0-0.164","ANBL","1","f","rechts","21","","fixation","","","",""
"1262","img/L60_180.png","70","image-keyboard-response","335","523813","0.0-6.0-1.164","ANBL","1","f","rechts","21","","","self","f","60","true"
"null","<div style=""font-size:60px;"">+</div>","null","html-keyboard-response","336","524264","0.0-6.0-0.165","ANBL","1","f","rechts","21","","fixation","","","",""
"1747","img/90_180.png","74","image-keyboard-response","337","526013","0.0-6.0-1.165","ANBL","1","f","rechts","21","","","self","j","90","true"
"null","<div style=""font-size:60px;"">+</div>","null","html-keyboard-response","338","526465","0.0-6.0-0.166","ANBL","1","f","rechts","21","","fixation","","","",""
"742","img/0_90.png","74","image-keyboard-response","339","527207","0.0-6.0-1.166","ANBL","1","f","rechts","21","","","self","j","0","true"
"null","<div style=""font-size:60px;"">+</div>","null","html-keyboard-response","340","527509","0.0-6.0-0.167","ANBL","1","f","rechts","21","","fixation","","","",""
"695","img/0_270.png","70","image-keyboard-response","341","528206","0.0-6.0-1.167","ANBL","1","f","rechts","21","","","self","f","0","true"
"null","<div style=""font-size:60px;"">+</div>","null","html-keyboard-response","342","528657","0.0-6.0-0.168","ANBL","1","f","rechts","21","","fixation","","","",""
"637","img/0_60.png","74","image-keyboard-response","343","529296","0.0-6.0-1.168","ANBL","1","f","rechts","21","","","self","j","0","true"
"null","<div style=""font-size:60px;"">+</div>","null","html-keyboard-response","344","529797","0.0-6.0-0.169","ANBL","1","f","rechts","21","","fixation","","","",""
"1076","img/90_210.png","74","image-keyboard-response","345","530874","0.0-6.0-1.169","ANBL","1","f","rechts","21","","","self","j","90","true"
"null","<div style=""font-size:60px;"">+</div>","null","html-keyboard-response","346","531276","0.0-6.0-0.170","ANBL","1","f","rechts","21","","fixation","","","",""
"1726","img/60_90.png","74","image-keyboard-response","347","533003","0.0-6.0-1.170","ANBL","1","f","rechts","21","","","self","j","60","true"
"null","<div style=""font-size:60px;"">+</div>","null","html-keyboard-response","348","533505","0.0-6.0-0.171","ANBL","1","f","rechts","21","","fixation","","","",""
"1296","img/90_150.png","70","image-keyboard-response","349","534802","0.0-6.0-1.171","ANBL","1","f","rechts","21","","","self","f","90","true"
"null","<div style=""font-size:60px;"">+</div>","null","html-keyboard-response","350","535154","0.0-6.0-0.172","ANBL","1","f","rechts","21","","fixation","","","",""
"1304","img/120_210.png","74","image-keyboard-response","351","536459","0.0-6.0-1.172","ANBL","1","f","rechts","21","","","self","j","120","true"
"null","<div style=""font-size:60px;"">+</div>","null","html-keyboard-response","352","536911","0.0-6.0-0.173","ANBL","1","f","rechts","21","","fixation","","","",""
"2050","img/150_300.png","70","image-keyboard-response","353","538962","0.0-6.0-1.173","ANBL","1","f","rechts","21","","","self","j","150","false"
"null","<div style=""font-size:60px;"">+</div>","null","html-keyboard-response","354","539314","0.0-6.0-0.174","ANBL","1","f","rechts","21","","fixation","","","",""
"687","img/0_300.png","70","image-keyboard-response","355","540001","0.0-6.0-1.174","ANBL","1","f","rechts","21","","","self","f","0","true"
"null","<div style=""font-size:60px;"">+</div>","null","html-keyboard-response","356","540303","0.0-6.0-0.175","ANBL","1","f","rechts","21","","fixation","","","",""
"1095","img/150_240.png","74","image-keyboard-response","357","541399","0.0-6.0-1.175","ANBL","1","f","rechts","21","","","self","j","150","true"
"null","<div style=""font-size:60px;"">+</div>","null","html-keyboard-response","358","541851","0.0-6.0-0.176","ANBL","1","f","rechts","21","","fixation","","","",""
"1499","img/30_270.png","70","image-keyboard-response","359","543351","0.0-6.0-1.176","ANBL","1","f","rechts","21","","","self","f","30","true"
"null","<div style=""font-size:60px;"">+</div>","null","html-keyboard-response","360","543653","0.0-6.0-0.177","ANBL","1","f","rechts","21","","fixation","","","",""
"1267","img/30_300.png","70","image-keyboard-response","361","544921","0.0-6.0-1.177","ANBL","1","f","rechts","21","","","self","f","30","true"
"null","<div style=""font-size:60px;"">+</div>","null","html-keyboard-response","362","545423","0.0-6.0-0.178","ANBL","1","f","rechts","21","","fixation","","","",""
"null","img/L150_180.png","null","image-keyboard-response","363","548425","0.0-6.0-1.178","ANBL","1","f","rechts","21","","","self","f","150","false"
"null","<div style=""font-size:60px;"">+</div>","null","html-keyboard-response","364","548827","0.0-6.0-0.179","ANBL","1","f","rechts","21","","fixation","","","",""
"2233","img/150_270.png","74","image-keyboard-response","365","551061","0.0-6.0-1.179","ANBL","1","f","rechts","21","","","self","j","150","true"
"null","<div style=""font-size:60px;"">+</div>","null","html-keyboard-response","366","551513","0.0-6.0-0.180","ANBL","1","f","rechts","21","","fixation","","","",""
"722","img/0_30.png","74","image-keyboard-response","367","552236","0.0-6.0-1.180","ANBL","1","f","rechts","21","","","self","j","0","true"
"null","<div style=""font-size:60px;"">+</div>","null","html-keyboard-response","368","552688","0.0-6.0-0.181","ANBL","1","f","rechts","21","","fixation","","","",""
"1412","img/30_180.png","74","image-keyboard-response","369","554100","0.0-6.0-1.181","ANBL","1","f","rechts","21","","","self","j","30","true"
"null","<div style=""font-size:60px;"">+</div>","null","html-keyboard-response","370","554452","0.0-6.0-0.182","ANBL","1","f","rechts","21","","fixation","","","",""
"1480","img/90_30.png","74","image-keyboard-response","371","555932","0.0-6.0-1.182","ANBL","1","f","rechts","21","","","self","j","90","true"
"null","<div style=""font-size:60px;"">+</div>","null","html-keyboard-response","372","556233","0.0-6.0-0.183","ANBL","1","f","rechts","21","","fixation","","","",""
"1332","img/30_240.png","70","image-keyboard-response","373","557566","0.0-6.0-1.183","ANBL","1","f","rechts","21","","","self","f","30","true"
"null","<div style=""font-size:60px;"">+</div>","null","html-keyboard-response","374","558018","0.0-6.0-0.184","ANBL","1","f","rechts","21","","fixation","","","",""
"1598","img/60_150.png","70","image-keyboard-response","375","559617","0.0-6.0-1.184","ANBL","1","f","rechts","21","","","self","f","60","true"
"null","<div style=""font-size:60px;"">+</div>","null","html-keyboard-response","376","560119","0.0-6.0-0.185","ANBL","1","f","rechts","21","","fixation","","","",""
"1071","img/120_180.png","74","image-keyboard-response","377","561190","0.0-6.0-1.185","ANBL","1","f","rechts","21","","","self","j","120","true"
"null","<div style=""font-size:60px;"">+</div>","null","html-keyboard-response","378","561641","0.0-6.0-0.186","ANBL","1","f","rechts","21","","fixation","","","",""
"992","img/60_30.png","70","image-keyboard-response","379","562634","0.0-6.0-1.186","ANBL","1","f","rechts","21","","","self","j","60","false"
"null","<div style=""font-size:60px;"">+</div>","null","html-keyboard-response","380","563086","0.0-6.0-0.187","ANBL","1","f","rechts","21","","fixation","","","",""
"1505","img/60_330.png","74","image-keyboard-response","381","564591","0.0-6.0-1.187","ANBL","1","f","rechts","21","","","self","f","60","false"
"null","<div style=""font-size:60px;"">+</div>","null","html-keyboard-response","382","564993","0.0-6.0-0.188","ANBL","1","f","rechts","21","","fixation","","","",""
"2189","img/90_240.png","74","image-keyboard-response","383","567182","0.0-6.0-1.188","ANBL","1","f","rechts","21","","","self","j","90","true"
"null","<div style=""font-size:60px;"">+</div>","null","html-keyboard-response","384","567483","0.0-6.0-0.189","ANBL","1","f","rechts","21","","fixation","","","",""
"1424","img/150_180.png","74","image-keyboard-response","385","568908","0.0-6.0-1.189","ANBL","1","f","rechts","21","","","self","j","150","true"
"null","<div style=""font-size:60px;"">+</div>","null","html-keyboard-response","386","569359","0.0-6.0-0.190","ANBL","1","f","rechts","21","","fixation","","","",""
"1941","img/0_210.png","70","image-keyboard-response","387","571302","0.0-6.0-1.190","ANBL","1","f","rechts","21","","","self","f","0","true"
"null","<div style=""font-size:60px;"">+</div>","null","html-keyboard-response","388","571603","0.0-6.0-0.191","ANBL","1","f","rechts","21","","fixation","","","",""
"1765","img/150_60.png","70","image-keyboard-response","389","573370","0.0-6.0-1.191","ANBL","1","f","rechts","21","","","self","f","150","true"
"null","<div style=""font-size:60px;"">+</div>","null","html-keyboard-response","390","573871","0.0-6.0-0.192","ANBL","1","f","rechts","21","","fixation","","","",""
"1561","img/150_90.png","70","image-keyboard-response","391","575433","0.0-6.0-1.192","ANBL","1","f","rechts","21","","","self","f","150","true"
"null","<div style=""font-size:60px;"">+</div>","null","html-keyboard-response","392","575786","0.0-6.0-0.193","ANBL","1","f","rechts","21","","fixation","","","",""
"2629","img/120_330.png","74","image-keyboard-response","393","578416","0.0-6.0-1.193","ANBL","1","f","rechts","21","","","self","f","120","false"
"null","<div style=""font-size:60px;"">+</div>","null","html-keyboard-response","394","578817","0.0-6.0-0.194","ANBL","1","f","rechts","21","","fixation","","","",""
"2350","img/120_30.png","74","image-keyboard-response","395","581168","0.0-6.0-1.194","ANBL","1","f","rechts","21","","","self","j","120","true"
"null","<div style=""font-size:60px;"">+</div>","null","html-keyboard-response","396","581620","0.0-6.0-0.195","ANBL","1","f","rechts","21","","fixation","","","",""
"845","img/0_330.png","70","image-keyboard-response","397","582467","0.0-6.0-1.195","ANBL","1","f","rechts","21","","","self","f","0","true"
"null","<div style=""font-size:60px;"">+</div>","null","html-keyboard-response","398","582868","0.0-6.0-0.196","ANBL","1","f","rechts","21","","fixation","","","",""
"1479","img/120_150.png","70","image-keyboard-response","399","584348","0.0-6.0-1.196","ANBL","1","f","rechts","21","","","self","f","120","true"
"null","<div style=""font-size:60px;"">+</div>","null","html-keyboard-response","400","584650","0.0-6.0-0.197","ANBL","1","f","rechts","21","","fixation","","","",""
"1733","img/30_60.png","74","image-keyboard-response","401","586384","0.0-6.0-1.197","ANBL","1","f","rechts","21","","","self","j","30","true"
"null","<div style=""font-size:60px;"">+</div>","null","html-keyboard-response","402","586786","0.0-6.0-0.198","ANBL","1","f","rechts","21","","fixation","","","",""
"957","img/0_120.png","74","image-keyboard-response","403","587744","0.0-6.0-1.198","ANBL","1","f","rechts","21","","","self","j","0","true"
"null","<div style=""font-size:60px;"">+</div>","null","html-keyboard-response","404","588046","0.0-6.0-0.199","ANBL","1","f","rechts","21","","fixation","","","",""
"1461","img/90_120.png","70","image-keyboard-response","405","589508","0.0-6.0-1.199","ANBL","1","f","rechts","21","","","self","f","90","true"
"null","<div style=""font-size:60px;"">+</div>","null","html-keyboard-response","406","589960","0.0-6.0-0.200","ANBL","1","f","rechts","21","","fixation","","","",""
"1245","img/60_210.png","74","image-keyboard-response","407","591206","0.0-6.0-1.200","ANBL","1","f","rechts","21","","","self","j","60","true"
"null","<div style=""font-size:60px;"">+</div>","null","html-keyboard-response","408","591508","0.0-6.0-0.201","ANBL","1","f","rechts","21","","fixation","","","",""
"1718","img/90_60.png","74","image-keyboard-response","409","593227","0.0-6.0-1.201","ANBL","1","f","rechts","21","","","self","j","90","true"
"null","<div style=""font-size:60px;"">+</div>","null","html-keyboard-response","410","593679","0.0-6.0-0.202","ANBL","1","f","rechts","21","","fixation","","","",""
"1404","img/60_180.png","74","image-keyboard-response","411","595084","0.0-6.0-1.202","ANBL","1","f","rechts","21","","","self","j","60","true"
"null","<div style=""font-size:60px;"">+</div>","null","html-keyboard-response","412","595386","0.0-6.0-0.203","ANBL","1","f","rechts","21","","fixation","","","",""
"746","img/0_240.png","70","image-keyboard-response","413","596133","0.0-6.0-1.203","ANBL","1","f","rechts","21","","","self","f","0","true"
"null","<div style=""font-size:60px;"">+</div>","null","html-keyboard-response","414","596584","0.0-6.0-0.204","ANBL","1","f","rechts","21","","fixation","","","",""
"1236","img/120_270.png","74","image-keyboard-response","415","597821","0.0-6.0-1.204","ANBL","1","f","rechts","21","","","self","j","120","true"
"null","<div style=""font-size:60px;"">+</div>","null","html-keyboard-response","416","598323","0.0-6.0-0.205","ANBL","1","f","rechts","21","","fixation","","","",""
"1585","img/90_300.png","74","image-keyboard-response","417","599908","0.0-6.0-1.205","ANBL","1","f","rechts","21","","","self","f","90","false"
"null","<div style=""font-size:60px;"">+</div>","null","html-keyboard-response","418","600260","0.0-6.0-0.206","ANBL","1","f","rechts","21","","fixation","","","",""
"946","img/0_150.png","74","image-keyboard-response","419","601207","0.0-6.0-1.206","ANBL","1","f","rechts","21","","","self","j","0","true"
"null","<div style=""font-size:60px;"">+</div>","null","html-keyboard-response","420","601558","0.0-6.0-0.207","ANBL","1","f","rechts","21","","fixation","","","",""
"1135","img/L90_180.png","70","image-keyboard-response","421","602693","0.0-6.0-1.207","ANBL","1","f","rechts","21","","","self","f","90","true"
"12371","<p>Du hast in 90% der Versuche korrekt entschieden.</p><p>Deine durchschnittliche Reaktionszeit war  1278ms.</p><p>Dr&uuml;cke eine beliebige Taste, um die Session zu beenden. Vielen Dank!</p>","75","html-keyboard-response","422","615066","0.0-7.0","ANBL","1","f","rechts","21","","","","","",""
