"rt","stimulus","key_press","trial_type","trial_index","time_elapsed","internal_node_id","subject","session","sex","handedness","age","responses","test_part","condition","correct_response","angle","correct"
"910","<p>Mental Rotation Experiment.</p> <p>Dr&uuml;cke eine beliebige Taste, um anzufangen.</p>","71","html-keyboard-response","0","912","0.0-0.0","ANBL","4","f","rechts","21","","","","","",""
"3663","","","survey-text","1","4576","0.0-1.0","ANBL","4","f","rechts","21","{""Q0"":""ANBL""}","","","","",""
"2214","","","survey-text","2","6790","0.0-2.0","ANBL","4","f","rechts","21","{""Q0"":""4""}","","","","",""
"2474","","","survey-multi-choice","3","9267","0.0-3.0","ANBL","4","f","rechts","21","{""Q0"":""f"",""Q1"":""rechts""}","","","","",""
"2595","","","survey-text","4","11862","0.0-4.0","ANBL","4","f","rechts","21","{""Q0"":""21""}","","","","",""
"612404","<p> Stell dir vor, dass du vor einem runden Tisch stehst, auf dem sich ein blauer Ball am Tischrand befindet. Entlang des Tischrands ist jeweils ein verschieden langer Pfeil. Nun bewegst du dich entlang dieses Pfeils bis an seine Spitze. Wenn du am Ende des Pfeils angekommen bist, schau zur Tischmitte. </p> <img src='img/90_180.png'></img> <br> <p>Entscheide dann, ob der Ball von deiner neuen (vorgestellten) Position links oder rechts von dir liegt.</p> <p>Dr&uuml;cke die <strong>'f'</strong>-Taste f&uuml;r links, die <strong>'j'</strong>-Taste f&uuml;r rechts.</p> <br><p> Das Bild wird jeweils 1 Sekunde lang pr&auml;sentiert. Du hast 3 Sekunden Zeit eine Entscheidung zu treffen.</p>","74","html-keyboard-response","5","624269","0.0-5.0","ANBL","4","f","rechts","21","","","","","",""
"null","<div style=""font-size:60px;"">+</div>","null","html-keyboard-response","6","625624","0.0-6.0-0.0","ANBL","4","f","rechts","21","","fixation","","","",""
"1538","img/90_60.png","74","image-keyboard-response","7","627164","0.0-6.0-1.0","ANBL","4","f","rechts","21","","","self","j","90","true"
"null","<div style=""font-size:60px;"">+</div>","null","html-keyboard-response","8","627665","0.0-6.0-0.1","ANBL","4","f","rechts","21","","fixation","","","",""
"959","img/150_300.png","74","image-keyboard-response","9","628625","0.0-6.0-1.1","ANBL","4","f","rechts","21","","","self","j","150","true"
"null","<div style=""font-size:60px;"">+</div>","null","html-keyboard-response","10","629027","0.0-6.0-0.2","ANBL","4","f","rechts","21","","fixation","","","",""
"966","img/L90_180.png","70","image-keyboard-response","11","629994","0.0-6.0-1.2","ANBL","4","f","rechts","21","","","self","f","90","true"
"null","<div style=""font-size:60px;"">+</div>","null","html-keyboard-response","12","630446","0.0-6.0-0.3","ANBL","4","f","rechts","21","","fixation","","","",""
"805","img/150_180.png","74","image-keyboard-response","13","631252","0.0-6.0-1.3","ANBL","4","f","rechts","21","","","self","j","150","true"
"null","<div style=""font-size:60px;"">+</div>","null","html-keyboard-response","14","631604","0.0-6.0-0.4","ANBL","4","f","rechts","21","","fixation","","","",""
"950","img/60_180.png","74","image-keyboard-response","15","632555","0.0-6.0-1.4","ANBL","4","f","rechts","21","","","self","j","60","true"
"null","<div style=""font-size:60px;"">+</div>","null","html-keyboard-response","16","632857","0.0-6.0-0.5","ANBL","4","f","rechts","21","","fixation","","","",""
"888","img/60_150.png","70","image-keyboard-response","17","633746","0.0-6.0-1.5","ANBL","4","f","rechts","21","","","self","f","60","true"
"null","<div style=""font-size:60px;"">+</div>","null","html-keyboard-response","18","634098","0.0-6.0-0.6","ANBL","4","f","rechts","21","","fixation","","","",""
"1126","img/150_90.png","70","image-keyboard-response","19","635226","0.0-6.0-1.6","ANBL","4","f","rechts","21","","","self","f","150","true"
"null","<div style=""font-size:60px;"">+</div>","null","html-keyboard-response","20","635578","0.0-6.0-0.7","ANBL","4","f","rechts","21","","fixation","","","",""
"929","img/90_150.png","70","image-keyboard-response","21","636508","0.0-6.0-1.7","ANBL","4","f","rechts","21","","","self","f","90","true"
"null","<div style=""font-size:60px;"">+</div>","null","html-keyboard-response","22","636960","0.0-6.0-0.8","ANBL","4","f","rechts","21","","fixation","","","",""
"793","img/150_270.png","74","image-keyboard-response","23","637753","0.0-6.0-1.8","ANBL","4","f","rechts","21","","","self","j","150","true"
"null","<div style=""font-size:60px;"">+</div>","null","html-keyboard-response","24","638154","0.0-6.0-0.9","ANBL","4","f","rechts","21","","fixation","","","",""
"1427","img/120_30.png","74","image-keyboard-response","25","639582","0.0-6.0-1.9","ANBL","4","f","rechts","21","","","self","j","120","true"
"null","<div style=""font-size:60px;"">+</div>","null","html-keyboard-response","26","640034","0.0-6.0-0.10","ANBL","4","f","rechts","21","","fixation","","","",""
"763","img/90_30.png","74","image-keyboard-response","27","640798","0.0-6.0-1.10","ANBL","4","f","rechts","21","","","self","j","90","true"
"null","<div style=""font-size:60px;"">+</div>","null","html-keyboard-response","28","641249","0.0-6.0-0.11","ANBL","4","f","rechts","21","","fixation","","","",""
"792","img/90_120.png","70","image-keyboard-response","29","642043","0.0-6.0-1.11","ANBL","4","f","rechts","21","","","self","f","90","true"
"null","<div style=""font-size:60px;"">+</div>","null","html-keyboard-response","30","642343","0.0-6.0-0.12","ANBL","4","f","rechts","21","","fixation","","","",""
"758","img/0_300.png","70","image-keyboard-response","31","643103","0.0-6.0-1.12","ANBL","4","f","rechts","21","","","self","f","0","true"
"null","<div style=""font-size:60px;"">+</div>","null","html-keyboard-response","32","643554","0.0-6.0-0.13","ANBL","4","f","rechts","21","","fixation","","","",""
"915","img/120_90.png","70","image-keyboard-response","33","644470","0.0-6.0-1.13","ANBL","4","f","rechts","21","","","self","f","120","true"
"null","<div style=""font-size:60px;"">+</div>","null","html-keyboard-response","34","644822","0.0-6.0-0.14","ANBL","4","f","rechts","21","","fixation","","","",""
"669","img/120_150.png","70","image-keyboard-response","35","645493","0.0-6.0-1.14","ANBL","4","f","rechts","21","","","self","f","120","true"
"null","<div style=""font-size:60px;"">+</div>","null","html-keyboard-response","36","645844","0.0-6.0-0.15","ANBL","4","f","rechts","21","","fixation","","","",""
"653","img/0_30.png","74","image-keyboard-response","37","646498","0.0-6.0-1.15","ANBL","4","f","rechts","21","","","self","j","0","true"
"null","<div style=""font-size:60px;"">+</div>","null","html-keyboard-response","38","646900","0.0-6.0-0.16","ANBL","4","f","rechts","21","","fixation","","","",""
"626","img/90_180.png","74","image-keyboard-response","39","647527","0.0-6.0-1.16","ANBL","4","f","rechts","21","","","self","j","90","true"
"null","<div style=""font-size:60px;"">+</div>","null","html-keyboard-response","40","647928","0.0-6.0-0.17","ANBL","4","f","rechts","21","","fixation","","","",""
"583","img/30_120.png","70","image-keyboard-response","41","648512","0.0-6.0-1.17","ANBL","4","f","rechts","21","","","self","j","30","false"
"null","<div style=""font-size:60px;"">+</div>","null","html-keyboard-response","42","649014","0.0-6.0-0.18","ANBL","4","f","rechts","21","","fixation","","","",""
"1185","img/30_60.png","74","image-keyboard-response","43","650200","0.0-6.0-1.18","ANBL","4","f","rechts","21","","","self","j","30","true"
"null","<div style=""font-size:60px;"">+</div>","null","html-keyboard-response","44","650702","0.0-6.0-0.19","ANBL","4","f","rechts","21","","fixation","","","",""
"911","img/150_240.png","74","image-keyboard-response","45","651614","0.0-6.0-1.19","ANBL","4","f","rechts","21","","","self","j","150","true"
"null","<div style=""font-size:60px;"">+</div>","null","html-keyboard-response","46","651966","0.0-6.0-0.20","ANBL","4","f","rechts","21","","fixation","","","",""
"701","img/0_270.png","70","image-keyboard-response","47","652668","0.0-6.0-1.20","ANBL","4","f","rechts","21","","","self","f","0","true"
"null","<div style=""font-size:60px;"">+</div>","null","html-keyboard-response","48","653170","0.0-6.0-0.21","ANBL","4","f","rechts","21","","fixation","","","",""
"729","img/120_180.png","74","image-keyboard-response","49","653900","0.0-6.0-1.21","ANBL","4","f","rechts","21","","","self","j","120","true"
"null","<div style=""font-size:60px;"">+</div>","null","html-keyboard-response","50","654252","0.0-6.0-0.22","ANBL","4","f","rechts","21","","fixation","","","",""
"755","img/120_210.png","74","image-keyboard-response","51","655008","0.0-6.0-1.22","ANBL","4","f","rechts","21","","","self","j","120","true"
"null","<div style=""font-size:60px;"">+</div>","null","html-keyboard-response","52","655410","0.0-6.0-0.23","ANBL","4","f","rechts","21","","fixation","","","",""
"1074","img/90_300.png","70","image-keyboard-response","53","656486","0.0-6.0-1.23","ANBL","4","f","rechts","21","","","self","f","90","true"
"null","<div style=""font-size:60px;"">+</div>","null","html-keyboard-response","54","656887","0.0-6.0-0.24","ANBL","4","f","rechts","21","","fixation","","","",""
"1065","img/90_330.png","70","image-keyboard-response","55","657953","0.0-6.0-1.24","ANBL","4","f","rechts","21","","","self","f","90","true"
"null","<div style=""font-size:60px;"">+</div>","null","html-keyboard-response","56","658404","0.0-6.0-0.25","ANBL","4","f","rechts","21","","fixation","","","",""
"1103","img/30_300.png","70","image-keyboard-response","57","659508","0.0-6.0-1.25","ANBL","4","f","rechts","21","","","self","f","30","true"
"null","<div style=""font-size:60px;"">+</div>","null","html-keyboard-response","58","659810","0.0-6.0-0.26","ANBL","4","f","rechts","21","","fixation","","","",""
"1245","img/60_90.png","74","image-keyboard-response","59","661056","0.0-6.0-1.26","ANBL","4","f","rechts","21","","","self","j","60","true"
"null","<div style=""font-size:60px;"">+</div>","null","html-keyboard-response","60","661357","0.0-6.0-0.27","ANBL","4","f","rechts","21","","fixation","","","",""
"1108","img/30_90.png","74","image-keyboard-response","61","662466","0.0-6.0-1.27","ANBL","4","f","rechts","21","","","self","j","30","true"
"null","<div style=""font-size:60px;"">+</div>","null","html-keyboard-response","62","662818","0.0-6.0-0.28","ANBL","4","f","rechts","21","","fixation","","","",""
"1314","img/30_240.png","70","image-keyboard-response","63","664133","0.0-6.0-1.28","ANBL","4","f","rechts","21","","","self","f","30","true"
"null","<div style=""font-size:60px;"">+</div>","null","html-keyboard-response","64","664434","0.0-6.0-0.29","ANBL","4","f","rechts","21","","fixation","","","",""
"1064","img/0_240.png","70","image-keyboard-response","65","665499","0.0-6.0-1.29","ANBL","4","f","rechts","21","","","self","f","0","true"
"null","<div style=""font-size:60px;"">+</div>","null","html-keyboard-response","66","665851","0.0-6.0-0.30","ANBL","4","f","rechts","21","","fixation","","","",""
"1063","img/90_240.png","74","image-keyboard-response","67","666916","0.0-6.0-1.30","ANBL","4","f","rechts","21","","","self","j","90","true"
"null","<div style=""font-size:60px;"">+</div>","null","html-keyboard-response","68","667367","0.0-6.0-0.31","ANBL","4","f","rechts","21","","fixation","","","",""
"802","img/0_330.png","70","image-keyboard-response","69","668170","0.0-6.0-1.31","ANBL","4","f","rechts","21","","","self","f","0","true"
"null","<div style=""font-size:60px;"">+</div>","null","html-keyboard-response","70","668672","0.0-6.0-0.32","ANBL","4","f","rechts","21","","fixation","","","",""
"1078","img/L120_180.png","70","image-keyboard-response","71","669751","0.0-6.0-1.32","ANBL","4","f","rechts","21","","","self","f","120","true"
"null","<div style=""font-size:60px;"">+</div>","null","html-keyboard-response","72","670152","0.0-6.0-0.33","ANBL","4","f","rechts","21","","fixation","","","",""
"943","img/60_30.png","74","image-keyboard-response","73","671096","0.0-6.0-1.33","ANBL","4","f","rechts","21","","","self","j","60","true"
"null","<div style=""font-size:60px;"">+</div>","null","html-keyboard-response","74","671548","0.0-6.0-0.34","ANBL","4","f","rechts","21","","fixation","","","",""
"898","img/0_90.png","74","image-keyboard-response","75","672447","0.0-6.0-1.34","ANBL","4","f","rechts","21","","","self","j","0","true"
"null","<div style=""font-size:60px;"">+</div>","null","html-keyboard-response","76","672949","0.0-6.0-0.35","ANBL","4","f","rechts","21","","fixation","","","",""
"904","img/60_330.png","70","image-keyboard-response","77","673853","0.0-6.0-1.35","ANBL","4","f","rechts","21","","","self","f","60","true"
"null","<div style=""font-size:60px;"">+</div>","null","html-keyboard-response","78","674154","0.0-6.0-0.36","ANBL","4","f","rechts","21","","fixation","","","",""
"1210","img/L60_180.png","70","image-keyboard-response","79","675364","0.0-6.0-1.36","ANBL","4","f","rechts","21","","","self","f","60","true"
"null","<div style=""font-size:60px;"">+</div>","null","html-keyboard-response","80","675716","0.0-6.0-0.37","ANBL","4","f","rechts","21","","fixation","","","",""
"745","img/0_150.png","74","image-keyboard-response","81","676462","0.0-6.0-1.37","ANBL","4","f","rechts","21","","","self","j","0","true"
"null","<div style=""font-size:60px;"">+</div>","null","html-keyboard-response","82","676963","0.0-6.0-0.38","ANBL","4","f","rechts","21","","fixation","","","",""
"1079","img/120_330.png","74","image-keyboard-response","83","678043","0.0-6.0-1.38","ANBL","4","f","rechts","21","","","self","f","120","false"
"null","<div style=""font-size:60px;"">+</div>","null","html-keyboard-response","84","678445","0.0-6.0-0.39","ANBL","4","f","rechts","21","","fixation","","","",""
"856","img/0_120.png","74","image-keyboard-response","85","679301","0.0-6.0-1.39","ANBL","4","f","rechts","21","","","self","j","0","true"
"null","<div style=""font-size:60px;"">+</div>","null","html-keyboard-response","86","679802","0.0-6.0-0.40","ANBL","4","f","rechts","21","","fixation","","","",""
"1160","img/60_210.png","74","image-keyboard-response","87","680964","0.0-6.0-1.40","ANBL","4","f","rechts","21","","","self","j","60","true"
"null","<div style=""font-size:60px;"">+</div>","null","html-keyboard-response","88","681366","0.0-6.0-0.41","ANBL","4","f","rechts","21","","fixation","","","",""
"971","img/60_270.png","70","image-keyboard-response","89","682338","0.0-6.0-1.41","ANBL","4","f","rechts","21","","","self","f","60","true"
"null","<div style=""font-size:60px;"">+</div>","null","html-keyboard-response","90","682839","0.0-6.0-0.42","ANBL","4","f","rechts","21","","fixation","","","",""
"803","img/L30_180.png","70","image-keyboard-response","91","683643","0.0-6.0-1.42","ANBL","4","f","rechts","21","","","self","f","30","true"
"null","<div style=""font-size:60px;"">+</div>","null","html-keyboard-response","92","683994","0.0-6.0-0.43","ANBL","4","f","rechts","21","","fixation","","","",""
"752","img/30_270.png","70","image-keyboard-response","93","684748","0.0-6.0-1.43","ANBL","4","f","rechts","21","","","self","f","30","true"
"null","<div style=""font-size:60px;"">+</div>","null","html-keyboard-response","94","685249","0.0-6.0-0.44","ANBL","4","f","rechts","21","","fixation","","","",""
"746","img/90_210.png","74","image-keyboard-response","95","685997","0.0-6.0-1.44","ANBL","4","f","rechts","21","","","self","j","90","true"
"null","<div style=""font-size:60px;"">+</div>","null","html-keyboard-response","96","686398","0.0-6.0-0.45","ANBL","4","f","rechts","21","","fixation","","","",""
"698","img/150_120.png","70","image-keyboard-response","97","687098","0.0-6.0-1.45","ANBL","4","f","rechts","21","","","self","f","150","true"
"null","<div style=""font-size:60px;"">+</div>","null","html-keyboard-response","98","687499","0.0-6.0-0.46","ANBL","4","f","rechts","21","","fixation","","","",""
"673","img/0_210.png","70","image-keyboard-response","99","688174","0.0-6.0-1.46","ANBL","4","f","rechts","21","","","self","f","0","true"
"null","<div style=""font-size:60px;"">+</div>","null","html-keyboard-response","100","688525","0.0-6.0-0.47","ANBL","4","f","rechts","21","","fixation","","","",""
"876","img/150_60.png","70","image-keyboard-response","101","689403","0.0-6.0-1.47","ANBL","4","f","rechts","21","","","self","f","150","true"
"null","<div style=""font-size:60px;"">+</div>","null","html-keyboard-response","102","689704","0.0-6.0-0.48","ANBL","4","f","rechts","21","","fixation","","","",""
"759","img/L150_180.png","70","image-keyboard-response","103","690465","0.0-6.0-1.48","ANBL","4","f","rechts","21","","","self","f","150","true"
"null","<div style=""font-size:60px;"">+</div>","null","html-keyboard-response","104","690766","0.0-6.0-0.49","ANBL","4","f","rechts","21","","fixation","","","",""
"748","img/0_60.png","74","image-keyboard-response","105","691516","0.0-6.0-1.49","ANBL","4","f","rechts","21","","","self","j","0","true"
"null","<div style=""font-size:60px;"">+</div>","null","html-keyboard-response","106","691917","0.0-6.0-0.50","ANBL","4","f","rechts","21","","fixation","","","",""
"733","img/120_270.png","74","image-keyboard-response","107","692651","0.0-6.0-1.50","ANBL","4","f","rechts","21","","","self","j","120","true"
"null","<div style=""font-size:60px;"">+</div>","null","html-keyboard-response","108","693053","0.0-6.0-0.51","ANBL","4","f","rechts","21","","fixation","","","",""
"783","img/30_180.png","74","image-keyboard-response","109","693837","0.0-6.0-1.51","ANBL","4","f","rechts","21","","","self","j","30","true"
"null","<div style=""font-size:60px;"">+</div>","null","html-keyboard-response","110","694138","0.0-6.0-0.52","ANBL","4","f","rechts","21","","fixation","","","",""
"644","img/0_270.png","70","image-keyboard-response","111","694783","0.0-6.0-1.52","ANBL","4","f","rechts","21","","","self","f","0","true"
"null","<div style=""font-size:60px;"">+</div>","null","html-keyboard-response","112","695185","0.0-6.0-0.53","ANBL","4","f","rechts","21","","fixation","","","",""
"733","img/0_150.png","74","image-keyboard-response","113","695919","0.0-6.0-1.53","ANBL","4","f","rechts","21","","","self","j","0","true"
"null","<div style=""font-size:60px;"">+</div>","null","html-keyboard-response","114","696271","0.0-6.0-0.54","ANBL","4","f","rechts","21","","fixation","","","",""
"706","img/150_90.png","70","image-keyboard-response","115","696977","0.0-6.0-1.54","ANBL","4","f","rechts","21","","","self","f","150","true"
"null","<div style=""font-size:60px;"">+</div>","null","html-keyboard-response","116","697479","0.0-6.0-0.55","ANBL","4","f","rechts","21","","fixation","","","",""
"898","img/60_330.png","70","image-keyboard-response","117","698379","0.0-6.0-1.55","ANBL","4","f","rechts","21","","","self","f","60","true"
"null","<div style=""font-size:60px;"">+</div>","null","html-keyboard-response","118","698830","0.0-6.0-0.56","ANBL","4","f","rechts","21","","fixation","","","",""
"715","img/30_180.png","74","image-keyboard-response","119","699546","0.0-6.0-1.56","ANBL","4","f","rechts","21","","","self","j","30","true"
"null","<div style=""font-size:60px;"">+</div>","null","html-keyboard-response","120","699898","0.0-6.0-0.57","ANBL","4","f","rechts","21","","fixation","","","",""
"712","img/90_210.png","74","image-keyboard-response","121","700611","0.0-6.0-1.57","ANBL","4","f","rechts","21","","","self","j","90","true"
"null","<div style=""font-size:60px;"">+</div>","null","html-keyboard-response","122","701013","0.0-6.0-0.58","ANBL","4","f","rechts","21","","fixation","","","",""
"733","img/150_60.png","70","image-keyboard-response","123","701747","0.0-6.0-1.58","ANBL","4","f","rechts","21","","","self","f","150","true"
"null","<div style=""font-size:60px;"">+</div>","null","html-keyboard-response","124","702199","0.0-6.0-0.59","ANBL","4","f","rechts","21","","fixation","","","",""
"795","img/0_210.png","70","image-keyboard-response","125","702994","0.0-6.0-1.59","ANBL","4","f","rechts","21","","","self","f","0","true"
"null","<div style=""font-size:60px;"">+</div>","null","html-keyboard-response","126","703446","0.0-6.0-0.60","ANBL","4","f","rechts","21","","fixation","","","",""
"691","img/0_30.png","74","image-keyboard-response","127","704137","0.0-6.0-1.60","ANBL","4","f","rechts","21","","","self","j","0","true"
"null","<div style=""font-size:60px;"">+</div>","null","html-keyboard-response","128","704588","0.0-6.0-0.61","ANBL","4","f","rechts","21","","fixation","","","",""
"698","img/30_270.png","70","image-keyboard-response","129","705287","0.0-6.0-1.61","ANBL","4","f","rechts","21","","","self","f","30","true"
"null","<div style=""font-size:60px;"">+</div>","null","html-keyboard-response","130","705689","0.0-6.0-0.62","ANBL","4","f","rechts","21","","fixation","","","",""
"739","img/120_210.png","74","image-keyboard-response","131","706428","0.0-6.0-1.62","ANBL","4","f","rechts","21","","","self","j","120","true"
"null","<div style=""font-size:60px;"">+</div>","null","html-keyboard-response","132","706780","0.0-6.0-0.63","ANBL","4","f","rechts","21","","fixation","","","",""
"955","img/150_270.png","74","image-keyboard-response","133","707735","0.0-6.0-1.63","ANBL","4","f","rechts","21","","","self","j","150","true"
"null","<div style=""font-size:60px;"">+</div>","null","html-keyboard-response","134","708037","0.0-6.0-0.64","ANBL","4","f","rechts","21","","fixation","","","",""
"1006","img/60_270.png","70","image-keyboard-response","135","709044","0.0-6.0-1.64","ANBL","4","f","rechts","21","","","self","f","60","true"
"null","<div style=""font-size:60px;"">+</div>","null","html-keyboard-response","136","709346","0.0-6.0-0.65","ANBL","4","f","rechts","21","","fixation","","","",""
"953","img/90_300.png","70","image-keyboard-response","137","710299","0.0-6.0-1.65","ANBL","4","f","rechts","21","","","self","f","90","true"
"null","<div style=""font-size:60px;"">+</div>","null","html-keyboard-response","138","710801","0.0-6.0-0.66","ANBL","4","f","rechts","21","","fixation","","","",""
"828","img/60_30.png","74","image-keyboard-response","139","711630","0.0-6.0-1.66","ANBL","4","f","rechts","21","","","self","j","60","true"
"null","<div style=""font-size:60px;"">+</div>","null","html-keyboard-response","140","712032","0.0-6.0-0.67","ANBL","4","f","rechts","21","","fixation","","","",""
"732","img/0_90.png","74","image-keyboard-response","141","712764","0.0-6.0-1.67","ANBL","4","f","rechts","21","","","self","j","0","true"
"null","<div style=""font-size:60px;"">+</div>","null","html-keyboard-response","142","713166","0.0-6.0-0.68","ANBL","4","f","rechts","21","","fixation","","","",""
"629","img/0_240.png","70","image-keyboard-response","143","713795","0.0-6.0-1.68","ANBL","4","f","rechts","21","","","self","f","0","true"
"null","<div style=""font-size:60px;"">+</div>","null","html-keyboard-response","144","714246","0.0-6.0-0.69","ANBL","4","f","rechts","21","","fixation","","","",""
"677","img/120_180.png","74","image-keyboard-response","145","714924","0.0-6.0-1.69","ANBL","4","f","rechts","21","","","self","j","120","true"
"null","<div style=""font-size:60px;"">+</div>","null","html-keyboard-response","146","715226","0.0-6.0-0.70","ANBL","4","f","rechts","21","","fixation","","","",""
"966","img/90_60.png","74","image-keyboard-response","147","716192","0.0-6.0-1.70","ANBL","4","f","rechts","21","","","self","j","90","true"
"null","<div style=""font-size:60px;"">+</div>","null","html-keyboard-response","148","716544","0.0-6.0-0.71","ANBL","4","f","rechts","21","","fixation","","","",""
"710","img/0_330.png","70","image-keyboard-response","149","717255","0.0-6.0-1.71","ANBL","4","f","rechts","21","","","self","f","0","true"
"null","<div style=""font-size:60px;"">+</div>","null","html-keyboard-response","150","717757","0.0-6.0-0.72","ANBL","4","f","rechts","21","","fixation","","","",""
"889","img/120_150.png","70","image-keyboard-response","151","718647","0.0-6.0-1.72","ANBL","4","f","rechts","21","","","self","f","120","true"
"null","<div style=""font-size:60px;"">+</div>","null","html-keyboard-response","152","719149","0.0-6.0-0.73","ANBL","4","f","rechts","21","","fixation","","","",""
"722","img/90_180.png","74","image-keyboard-response","153","719871","0.0-6.0-1.73","ANBL","4","f","rechts","21","","","self","j","90","true"
"null","<div style=""font-size:60px;"">+</div>","null","html-keyboard-response","154","720323","0.0-6.0-0.74","ANBL","4","f","rechts","21","","fixation","","","",""
"739","img/90_330.png","70","image-keyboard-response","155","721062","0.0-6.0-1.74","ANBL","4","f","rechts","21","","","self","f","90","true"
"null","<div style=""font-size:60px;"">+</div>","null","html-keyboard-response","156","721514","0.0-6.0-0.75","ANBL","4","f","rechts","21","","fixation","","","",""
"990","img/150_180.png","74","image-keyboard-response","157","722504","0.0-6.0-1.75","ANBL","4","f","rechts","21","","","self","j","150","true"
"null","<div style=""font-size:60px;"">+</div>","null","html-keyboard-response","158","723006","0.0-6.0-0.76","ANBL","4","f","rechts","21","","fixation","","","",""
"944","img/60_90.png","74","image-keyboard-response","159","723951","0.0-6.0-1.76","ANBL","4","f","rechts","21","","","self","j","60","true"
"null","<div style=""font-size:60px;"">+</div>","null","html-keyboard-response","160","724403","0.0-6.0-0.77","ANBL","4","f","rechts","21","","fixation","","","",""
"918","img/L60_180.png","70","image-keyboard-response","161","725321","0.0-6.0-1.77","ANBL","4","f","rechts","21","","","self","f","60","true"
"null","<div style=""font-size:60px;"">+</div>","null","html-keyboard-response","162","725622","0.0-6.0-0.78","ANBL","4","f","rechts","21","","fixation","","","",""
"1073","img/120_30.png","74","image-keyboard-response","163","726696","0.0-6.0-1.78","ANBL","4","f","rechts","21","","","self","j","120","true"
"null","<div style=""font-size:60px;"">+</div>","null","html-keyboard-response","164","727097","0.0-6.0-0.79","ANBL","4","f","rechts","21","","fixation","","","",""
"940","img/90_150.png","70","image-keyboard-response","165","728038","0.0-6.0-1.79","ANBL","4","f","rechts","21","","","self","f","90","true"
"null","<div style=""font-size:60px;"">+</div>","null","html-keyboard-response","166","728339","0.0-6.0-0.80","ANBL","4","f","rechts","21","","fixation","","","",""
"1065","img/30_240.png","70","image-keyboard-response","167","729404","0.0-6.0-1.80","ANBL","4","f","rechts","21","","","self","f","30","true"
"null","<div style=""font-size:60px;"">+</div>","null","html-keyboard-response","168","729856","0.0-6.0-0.81","ANBL","4","f","rechts","21","","fixation","","","",""
"1114","img/L30_180.png","70","image-keyboard-response","169","730971","0.0-6.0-1.81","ANBL","4","f","rechts","21","","","self","f","30","true"
"null","<div style=""font-size:60px;"">+</div>","null","html-keyboard-response","170","731472","0.0-6.0-0.82","ANBL","4","f","rechts","21","","fixation","","","",""
"933","img/120_270.png","74","image-keyboard-response","171","732406","0.0-6.0-1.82","ANBL","4","f","rechts","21","","","self","j","120","true"
"null","<div style=""font-size:60px;"">+</div>","null","html-keyboard-response","172","732758","0.0-6.0-0.83","ANBL","4","f","rechts","21","","fixation","","","",""
"1049","img/L150_180.png","70","image-keyboard-response","173","733807","0.0-6.0-1.83","ANBL","4","f","rechts","21","","","self","f","150","true"
"null","<div style=""font-size:60px;"">+</div>","null","html-keyboard-response","174","734308","0.0-6.0-0.84","ANBL","4","f","rechts","21","","fixation","","","",""
"1077","img/150_120.png","70","image-keyboard-response","175","735386","0.0-6.0-1.84","ANBL","4","f","rechts","21","","","self","f","150","true"
"null","<div style=""font-size:60px;"">+</div>","null","html-keyboard-response","176","735687","0.0-6.0-0.85","ANBL","4","f","rechts","21","","fixation","","","",""
"1199","img/60_180.png","74","image-keyboard-response","177","736887","0.0-6.0-1.85","ANBL","4","f","rechts","21","","","self","j","60","true"
"null","<div style=""font-size:60px;"">+</div>","null","html-keyboard-response","178","737239","0.0-6.0-0.86","ANBL","4","f","rechts","21","","fixation","","","",""
"755","img/30_300.png","70","image-keyboard-response","179","737996","0.0-6.0-1.86","ANBL","4","f","rechts","21","","","self","f","30","true"
"null","<div style=""font-size:60px;"">+</div>","null","html-keyboard-response","180","738297","0.0-6.0-0.87","ANBL","4","f","rechts","21","","fixation","","","",""
"837","img/0_60.png","74","image-keyboard-response","181","739135","0.0-6.0-1.87","ANBL","4","f","rechts","21","","","self","j","0","true"
"null","<div style=""font-size:60px;"">+</div>","null","html-keyboard-response","182","739437","0.0-6.0-0.88","ANBL","4","f","rechts","21","","fixation","","","",""
"849","img/30_60.png","74","image-keyboard-response","183","740288","0.0-6.0-1.88","ANBL","4","f","rechts","21","","","self","j","30","true"
"null","<div style=""font-size:60px;"">+</div>","null","html-keyboard-response","184","740589","0.0-6.0-0.89","ANBL","4","f","rechts","21","","fixation","","","",""
"922","img/60_210.png","74","image-keyboard-response","185","741513","0.0-6.0-1.89","ANBL","4","f","rechts","21","","","self","j","60","true"
"null","<div style=""font-size:60px;"">+</div>","null","html-keyboard-response","186","741814","0.0-6.0-0.90","ANBL","4","f","rechts","21","","fixation","","","",""
"848","img/150_240.png","74","image-keyboard-response","187","742664","0.0-6.0-1.90","ANBL","4","f","rechts","21","","","self","j","150","true"
"null","<div style=""font-size:60px;"">+</div>","null","html-keyboard-response","188","743015","0.0-6.0-0.91","ANBL","4","f","rechts","21","","fixation","","","",""
"873","img/90_240.png","74","image-keyboard-response","189","743889","0.0-6.0-1.91","ANBL","4","f","rechts","21","","","self","j","90","true"
"null","<div style=""font-size:60px;"">+</div>","null","html-keyboard-response","190","744291","0.0-6.0-0.92","ANBL","4","f","rechts","21","","fixation","","","",""
"1047","img/30_120.png","70","image-keyboard-response","191","745339","0.0-6.0-1.92","ANBL","4","f","rechts","21","","","self","j","30","false"
"null","<div style=""font-size:60px;"">+</div>","null","html-keyboard-response","192","745740","0.0-6.0-0.93","ANBL","4","f","rechts","21","","fixation","","","",""
"1141","img/90_120.png","70","image-keyboard-response","193","746882","0.0-6.0-1.93","ANBL","4","f","rechts","21","","","self","f","90","true"
"null","<div style=""font-size:60px;"">+</div>","null","html-keyboard-response","194","747334","0.0-6.0-0.94","ANBL","4","f","rechts","21","","fixation","","","",""
"1160","img/120_330.png","70","image-keyboard-response","195","748495","0.0-6.0-1.94","ANBL","4","f","rechts","21","","","self","f","120","true"
"null","<div style=""font-size:60px;"">+</div>","null","html-keyboard-response","196","748946","0.0-6.0-0.95","ANBL","4","f","rechts","21","","fixation","","","",""
"1089","img/L120_180.png","70","image-keyboard-response","197","750035","0.0-6.0-1.95","ANBL","4","f","rechts","21","","","self","f","120","true"
"null","<div style=""font-size:60px;"">+</div>","null","html-keyboard-response","198","750387","0.0-6.0-0.96","ANBL","4","f","rechts","21","","fixation","","","",""
"1073","img/150_300.png","74","image-keyboard-response","199","751460","0.0-6.0-1.96","ANBL","4","f","rechts","21","","","self","j","150","true"
"null","<div style=""font-size:60px;"">+</div>","null","html-keyboard-response","200","751812","0.0-6.0-0.97","ANBL","4","f","rechts","21","","fixation","","","",""
"1088","img/120_90.png","70","image-keyboard-response","201","752901","0.0-6.0-1.97","ANBL","4","f","rechts","21","","","self","f","120","true"
"null","<div style=""font-size:60px;"">+</div>","null","html-keyboard-response","202","753253","0.0-6.0-0.98","ANBL","4","f","rechts","21","","fixation","","","",""
"1065","img/30_90.png","74","image-keyboard-response","203","754318","0.0-6.0-1.98","ANBL","4","f","rechts","21","","","self","j","30","true"
"null","<div style=""font-size:60px;"">+</div>","null","html-keyboard-response","204","754770","0.0-6.0-0.99","ANBL","4","f","rechts","21","","fixation","","","",""
"729","img/0_300.png","70","image-keyboard-response","205","755499","0.0-6.0-1.99","ANBL","4","f","rechts","21","","","self","f","0","true"
"null","<div style=""font-size:60px;"">+</div>","null","html-keyboard-response","206","756001","0.0-6.0-0.100","ANBL","4","f","rechts","21","","fixation","","","",""
"1073","img/L90_180.png","70","image-keyboard-response","207","757074","0.0-6.0-1.100","ANBL","4","f","rechts","21","","","self","f","90","true"
"null","<div style=""font-size:60px;"">+</div>","null","html-keyboard-response","208","757575","0.0-6.0-0.101","ANBL","4","f","rechts","21","","fixation","","","",""
"1242","img/60_150.png","70","image-keyboard-response","209","758818","0.0-6.0-1.101","ANBL","4","f","rechts","21","","","self","f","60","true"
"null","<div style=""font-size:60px;"">+</div>","null","html-keyboard-response","210","759270","0.0-6.0-0.102","ANBL","4","f","rechts","21","","fixation","","","",""
"1091","img/90_30.png","74","image-keyboard-response","211","760361","0.0-6.0-1.102","ANBL","4","f","rechts","21","","","self","j","90","true"
"null","<div style=""font-size:60px;"">+</div>","null","html-keyboard-response","212","760763","0.0-6.0-0.103","ANBL","4","f","rechts","21","","fixation","","","",""
"934","img/0_120.png","74","image-keyboard-response","213","761697","0.0-6.0-1.103","ANBL","4","f","rechts","21","","","self","j","0","true"
"null","<div style=""font-size:60px;"">+</div>","null","html-keyboard-response","214","762099","0.0-6.0-0.104","ANBL","4","f","rechts","21","","fixation","","","",""
"1421","img/30_120.png","74","image-keyboard-response","215","763520","0.0-6.0-1.104","ANBL","4","f","rechts","21","","","self","j","30","true"
"null","<div style=""font-size:60px;"">+</div>","null","html-keyboard-response","216","764022","0.0-6.0-0.105","ANBL","4","f","rechts","21","","fixation","","","",""
"1077","img/150_120.png","70","image-keyboard-response","217","765099","0.0-6.0-1.105","ANBL","4","f","rechts","21","","","self","f","150","true"
"null","<div style=""font-size:60px;"">+</div>","null","html-keyboard-response","218","765550","0.0-6.0-0.106","ANBL","4","f","rechts","21","","fixation","","","",""
"943","img/0_300.png","70","image-keyboard-response","219","766494","0.0-6.0-1.106","ANBL","4","f","rechts","21","","","self","f","0","true"
"null","<div style=""font-size:60px;"">+</div>","null","html-keyboard-response","220","766846","0.0-6.0-0.107","ANBL","4","f","rechts","21","","fixation","","","",""
"1093","img/120_270.png","74","image-keyboard-response","221","767939","0.0-6.0-1.107","ANBL","4","f","rechts","21","","","self","j","120","true"
"null","<div style=""font-size:60px;"">+</div>","null","html-keyboard-response","222","768441","0.0-6.0-0.108","ANBL","4","f","rechts","21","","fixation","","","",""
"1248","img/150_90.png","70","image-keyboard-response","223","769689","0.0-6.0-1.108","ANBL","4","f","rechts","21","","","self","f","150","true"
"null","<div style=""font-size:60px;"">+</div>","null","html-keyboard-response","224","769991","0.0-6.0-0.109","ANBL","4","f","rechts","21","","fixation","","","",""
"989","img/150_240.png","74","image-keyboard-response","225","770980","0.0-6.0-1.109","ANBL","4","f","rechts","21","","","self","j","150","true"
"null","<div style=""font-size:60px;"">+</div>","null","html-keyboard-response","226","771482","0.0-6.0-0.110","ANBL","4","f","rechts","21","","fixation","","","",""
"1161","img/120_30.png","74","image-keyboard-response","227","772643","0.0-6.0-1.110","ANBL","4","f","rechts","21","","","self","j","120","true"
"null","<div style=""font-size:60px;"">+</div>","null","html-keyboard-response","228","773094","0.0-6.0-0.111","ANBL","4","f","rechts","21","","fixation","","","",""
"884","img/120_210.png","74","image-keyboard-response","229","773978","0.0-6.0-1.111","ANBL","4","f","rechts","21","","","self","j","120","true"
"null","<div style=""font-size:60px;"">+</div>","null","html-keyboard-response","230","774329","0.0-6.0-0.112","ANBL","4","f","rechts","21","","fixation","","","",""
"956","img/0_60.png","74","image-keyboard-response","231","775286","0.0-6.0-1.112","ANBL","4","f","rechts","21","","","self","j","0","true"
"null","<div style=""font-size:60px;"">+</div>","null","html-keyboard-response","232","775738","0.0-6.0-0.113","ANBL","4","f","rechts","21","","fixation","","","",""
"986","img/L30_180.png","70","image-keyboard-response","233","776724","0.0-6.0-1.113","ANBL","4","f","rechts","21","","","self","f","30","true"
"null","<div style=""font-size:60px;"">+</div>","null","html-keyboard-response","234","777125","0.0-6.0-0.114","ANBL","4","f","rechts","21","","fixation","","","",""
"978","img/90_330.png","70","image-keyboard-response","235","778104","0.0-6.0-1.114","ANBL","4","f","rechts","21","","","self","f","90","true"
"null","<div style=""font-size:60px;"">+</div>","null","html-keyboard-response","236","778505","0.0-6.0-0.115","ANBL","4","f","rechts","21","","fixation","","","",""
"929","img/60_270.png","70","image-keyboard-response","237","779435","0.0-6.0-1.115","ANBL","4","f","rechts","21","","","self","f","60","true"
"null","<div style=""font-size:60px;"">+</div>","null","html-keyboard-response","238","779786","0.0-6.0-0.116","ANBL","4","f","rechts","21","","fixation","","","",""
"1638","img/90_60.png","74","image-keyboard-response","239","781426","0.0-6.0-1.116","ANBL","4","f","rechts","21","","","self","j","90","true"
"null","<div style=""font-size:60px;"">+</div>","null","html-keyboard-response","240","781728","0.0-6.0-0.117","ANBL","4","f","rechts","21","","fixation","","","",""
"1216","img/60_180.png","74","image-keyboard-response","241","782945","0.0-6.0-1.117","ANBL","4","f","rechts","21","","","self","j","60","true"
"null","<div style=""font-size:60px;"">+</div>","null","html-keyboard-response","242","783246","0.0-6.0-0.118","ANBL","4","f","rechts","21","","fixation","","","",""
"1146","img/30_90.png","74","image-keyboard-response","243","784393","0.0-6.0-1.118","ANBL","4","f","rechts","21","","","self","j","30","true"
"null","<div style=""font-size:60px;"">+</div>","null","html-keyboard-response","244","784845","0.0-6.0-0.119","ANBL","4","f","rechts","21","","fixation","","","",""
"898","img/150_180.png","74","image-keyboard-response","245","785744","0.0-6.0-1.119","ANBL","4","f","rechts","21","","","self","j","150","true"
"null","<div style=""font-size:60px;"">+</div>","null","html-keyboard-response","246","786095","0.0-6.0-0.120","ANBL","4","f","rechts","21","","fixation","","","",""
"1100","img/150_300.png","74","image-keyboard-response","247","787197","0.0-6.0-1.120","ANBL","4","f","rechts","21","","","self","j","150","true"
"null","<div style=""font-size:60px;"">+</div>","null","html-keyboard-response","248","787498","0.0-6.0-0.121","ANBL","4","f","rechts","21","","fixation","","","",""
"930","img/L150_180.png","70","image-keyboard-response","249","788430","0.0-6.0-1.121","ANBL","4","f","rechts","21","","","self","f","150","true"
"null","<div style=""font-size:60px;"">+</div>","null","html-keyboard-response","250","788881","0.0-6.0-0.122","ANBL","4","f","rechts","21","","fixation","","","",""
"1271","img/90_120.png","70","image-keyboard-response","251","790153","0.0-6.0-1.122","ANBL","4","f","rechts","21","","","self","f","90","true"
"null","<div style=""font-size:60px;"">+</div>","null","html-keyboard-response","252","790455","0.0-6.0-0.123","ANBL","4","f","rechts","21","","fixation","","","",""
"1475","img/120_330.png","70","image-keyboard-response","253","791931","0.0-6.0-1.123","ANBL","4","f","rechts","21","","","self","f","120","true"
"null","<div style=""font-size:60px;"">+</div>","null","html-keyboard-response","254","792233","0.0-6.0-0.124","ANBL","4","f","rechts","21","","fixation","","","",""
"1077","img/90_150.png","70","image-keyboard-response","255","793311","0.0-6.0-1.124","ANBL","4","f","rechts","21","","","self","f","90","true"
"null","<div style=""font-size:60px;"">+</div>","null","html-keyboard-response","256","793813","0.0-6.0-0.125","ANBL","4","f","rechts","21","","fixation","","","",""
"650","img/0_330.png","70","image-keyboard-response","257","794464","0.0-6.0-1.125","ANBL","4","f","rechts","21","","","self","f","0","true"
"null","<div style=""font-size:60px;"">+</div>","null","html-keyboard-response","258","794816","0.0-6.0-0.126","ANBL","4","f","rechts","21","","fixation","","","",""
"833","img/120_90.png","70","image-keyboard-response","259","795649","0.0-6.0-1.126","ANBL","4","f","rechts","21","","","self","f","120","true"
"null","<div style=""font-size:60px;"">+</div>","null","html-keyboard-response","260","796001","0.0-6.0-0.127","ANBL","4","f","rechts","21","","fixation","","","",""
"1065","img/30_60.png","74","image-keyboard-response","261","797067","0.0-6.0-1.127","ANBL","4","f","rechts","21","","","self","j","30","true"
"null","<div style=""font-size:60px;"">+</div>","null","html-keyboard-response","262","797519","0.0-6.0-0.128","ANBL","4","f","rechts","21","","fixation","","","",""
"935","img/L120_180.png","70","image-keyboard-response","263","798455","0.0-6.0-1.128","ANBL","4","f","rechts","21","","","self","f","120","true"
"null","<div style=""font-size:60px;"">+</div>","null","html-keyboard-response","264","798757","0.0-6.0-0.129","ANBL","4","f","rechts","21","","fixation","","","",""
"885","img/60_210.png","74","image-keyboard-response","265","799642","0.0-6.0-1.129","ANBL","4","f","rechts","21","","","self","j","60","true"
"null","<div style=""font-size:60px;"">+</div>","null","html-keyboard-response","266","800094","0.0-6.0-0.130","ANBL","4","f","rechts","21","","fixation","","","",""
"693","img/L60_180.png","70","image-keyboard-response","267","800788","0.0-6.0-1.130","ANBL","4","f","rechts","21","","","self","f","60","true"
"null","<div style=""font-size:60px;"">+</div>","null","html-keyboard-response","268","801190","0.0-6.0-0.131","ANBL","4","f","rechts","21","","fixation","","","",""
"871","img/30_240.png","70","image-keyboard-response","269","802062","0.0-6.0-1.131","ANBL","4","f","rechts","21","","","self","f","30","true"
"null","<div style=""font-size:60px;"">+</div>","null","html-keyboard-response","270","802464","0.0-6.0-0.132","ANBL","4","f","rechts","21","","fixation","","","",""
"662","img/0_30.png","74","image-keyboard-response","271","803127","0.0-6.0-1.132","ANBL","4","f","rechts","21","","","self","j","0","true"
"null","<div style=""font-size:60px;"">+</div>","null","html-keyboard-response","272","803479","0.0-6.0-0.133","ANBL","4","f","rechts","21","","fixation","","","",""
"802","img/30_300.png","70","image-keyboard-response","273","804281","0.0-6.0-1.133","ANBL","4","f","rechts","21","","","self","f","30","true"
"null","<div style=""font-size:60px;"">+</div>","null","html-keyboard-response","274","804783","0.0-6.0-0.134","ANBL","4","f","rechts","21","","fixation","","","",""
"1065","img/90_300.png","74","image-keyboard-response","275","805849","0.0-6.0-1.134","ANBL","4","f","rechts","21","","","self","f","90","false"
"null","<div style=""font-size:60px;"">+</div>","null","html-keyboard-response","276","806351","0.0-6.0-0.135","ANBL","4","f","rechts","21","","fixation","","","",""
"1176","img/150_60.png","70","image-keyboard-response","277","807528","0.0-6.0-1.135","ANBL","4","f","rechts","21","","","self","f","150","true"
"null","<div style=""font-size:60px;"">+</div>","null","html-keyboard-response","278","807979","0.0-6.0-0.136","ANBL","4","f","rechts","21","","fixation","","","",""
"1076","img/90_240.png","74","image-keyboard-response","279","809056","0.0-6.0-1.136","ANBL","4","f","rechts","21","","","self","j","90","true"
"null","<div style=""font-size:60px;"">+</div>","null","html-keyboard-response","280","809558","0.0-6.0-0.137","ANBL","4","f","rechts","21","","fixation","","","",""
"688","img/0_90.png","74","image-keyboard-response","281","810246","0.0-6.0-1.137","ANBL","4","f","rechts","21","","","self","j","0","true"
"null","<div style=""font-size:60px;"">+</div>","null","html-keyboard-response","282","810598","0.0-6.0-0.138","ANBL","4","f","rechts","21","","fixation","","","",""
"655","img/0_270.png","70","image-keyboard-response","283","811253","0.0-6.0-1.138","ANBL","4","f","rechts","21","","","self","f","0","true"
"null","<div style=""font-size:60px;"">+</div>","null","html-keyboard-response","284","811555","0.0-6.0-0.139","ANBL","4","f","rechts","21","","fixation","","","",""
"838","img/30_270.png","70","image-keyboard-response","285","812393","0.0-6.0-1.139","ANBL","4","f","rechts","21","","","self","f","30","true"
"null","<div style=""font-size:60px;"">+</div>","null","html-keyboard-response","286","812895","0.0-6.0-0.140","ANBL","4","f","rechts","21","","fixation","","","",""
"1793","img/90_30.png","74","image-keyboard-response","287","814688","0.0-6.0-1.140","ANBL","4","f","rechts","21","","","self","j","90","true"
"null","<div style=""font-size:60px;"">+</div>","null","html-keyboard-response","288","815040","0.0-6.0-0.141","ANBL","4","f","rechts","21","","fixation","","","",""
"922","img/120_180.png","74","image-keyboard-response","289","815962","0.0-6.0-1.141","ANBL","4","f","rechts","21","","","self","j","120","true"
"null","<div style=""font-size:60px;"">+</div>","null","html-keyboard-response","290","816464","0.0-6.0-0.142","ANBL","4","f","rechts","21","","fixation","","","",""
"679","img/120_150.png","70","image-keyboard-response","291","817143","0.0-6.0-1.142","ANBL","4","f","rechts","21","","","self","f","120","true"
"null","<div style=""font-size:60px;"">+</div>","null","html-keyboard-response","292","817544","0.0-6.0-0.143","ANBL","4","f","rechts","21","","fixation","","","",""
"817","img/90_210.png","74","image-keyboard-response","293","818362","0.0-6.0-1.143","ANBL","4","f","rechts","21","","","self","j","90","true"
"null","<div style=""font-size:60px;"">+</div>","null","html-keyboard-response","294","818713","0.0-6.0-0.144","ANBL","4","f","rechts","21","","fixation","","","",""
"679","img/0_240.png","70","image-keyboard-response","295","819393","0.0-6.0-1.144","ANBL","4","f","rechts","21","","","self","f","0","true"
"null","<div style=""font-size:60px;"">+</div>","null","html-keyboard-response","296","819744","0.0-6.0-0.145","ANBL","4","f","rechts","21","","fixation","","","",""
"725","img/30_180.png","74","image-keyboard-response","297","820471","0.0-6.0-1.145","ANBL","4","f","rechts","21","","","self","j","30","true"
"null","<div style=""font-size:60px;"">+</div>","null","html-keyboard-response","298","820972","0.0-6.0-0.146","ANBL","4","f","rechts","21","","fixation","","","",""
"654","img/L90_180.png","70","image-keyboard-response","299","821627","0.0-6.0-1.146","ANBL","4","f","rechts","21","","","self","f","90","true"
"null","<div style=""font-size:60px;"">+</div>","null","html-keyboard-response","300","822028","0.0-6.0-0.147","ANBL","4","f","rechts","21","","fixation","","","",""
"785","img/60_330.png","70","image-keyboard-response","301","822814","0.0-6.0-1.147","ANBL","4","f","rechts","21","","","self","f","60","true"
"null","<div style=""font-size:60px;"">+</div>","null","html-keyboard-response","302","823215","0.0-6.0-0.148","ANBL","4","f","rechts","21","","fixation","","","",""
"663","img/0_120.png","74","image-keyboard-response","303","823879","0.0-6.0-1.148","ANBL","4","f","rechts","21","","","self","j","0","true"
"null","<div style=""font-size:60px;"">+</div>","null","html-keyboard-response","304","824180","0.0-6.0-0.149","ANBL","4","f","rechts","21","","fixation","","","",""
"947","img/60_150.png","70","image-keyboard-response","305","825128","0.0-6.0-1.149","ANBL","4","f","rechts","21","","","self","f","60","true"
"null","<div style=""font-size:60px;"">+</div>","null","html-keyboard-response","306","825529","0.0-6.0-0.150","ANBL","4","f","rechts","21","","fixation","","","",""
"730","img/90_180.png","74","image-keyboard-response","307","826260","0.0-6.0-1.150","ANBL","4","f","rechts","21","","","self","j","90","true"
"null","<div style=""font-size:60px;"">+</div>","null","html-keyboard-response","308","826761","0.0-6.0-0.151","ANBL","4","f","rechts","21","","fixation","","","",""
"837","img/60_30.png","74","image-keyboard-response","309","827599","0.0-6.0-1.151","ANBL","4","f","rechts","21","","","self","j","60","true"
"null","<div style=""font-size:60px;"">+</div>","null","html-keyboard-response","310","827900","0.0-6.0-0.152","ANBL","4","f","rechts","21","","fixation","","","",""
"1154","img/60_90.png","74","image-keyboard-response","311","829056","0.0-6.0-1.152","ANBL","4","f","rechts","21","","","self","j","60","true"
"null","<div style=""font-size:60px;"">+</div>","null","html-keyboard-response","312","829457","0.0-6.0-0.153","ANBL","4","f","rechts","21","","fixation","","","",""
"787","img/0_210.png","70","image-keyboard-response","313","830245","0.0-6.0-1.153","ANBL","4","f","rechts","21","","","self","f","0","true"
"null","<div style=""font-size:60px;"">+</div>","null","html-keyboard-response","314","830646","0.0-6.0-0.154","ANBL","4","f","rechts","21","","fixation","","","",""
"796","img/0_150.png","74","image-keyboard-response","315","831444","0.0-6.0-1.154","ANBL","4","f","rechts","21","","","self","j","0","true"
"null","<div style=""font-size:60px;"">+</div>","null","html-keyboard-response","316","831795","0.0-6.0-0.155","ANBL","4","f","rechts","21","","fixation","","","",""
"916","img/150_270.png","74","image-keyboard-response","317","832713","0.0-6.0-1.155","ANBL","4","f","rechts","21","","","self","j","150","true"
"null","<div style=""font-size:60px;"">+</div>","null","html-keyboard-response","318","833164","0.0-6.0-0.156","ANBL","4","f","rechts","21","","fixation","","","",""
"976","img/90_300.png","70","image-keyboard-response","319","834142","0.0-6.0-1.156","ANBL","4","f","rechts","21","","","self","f","90","true"
"null","<div style=""font-size:60px;"">+</div>","null","html-keyboard-response","320","834643","0.0-6.0-0.157","ANBL","4","f","rechts","21","","fixation","","","",""
"1186","img/L60_180.png","70","image-keyboard-response","321","835830","0.0-6.0-1.157","ANBL","4","f","rechts","21","","","self","f","60","true"
"null","<div style=""font-size:60px;"">+</div>","null","html-keyboard-response","322","836332","0.0-6.0-0.158","ANBL","4","f","rechts","21","","fixation","","","",""
"796","img/0_150.png","74","image-keyboard-response","323","837129","0.0-6.0-1.158","ANBL","4","f","rechts","21","","","self","j","0","true"
"null","<div style=""font-size:60px;"">+</div>","null","html-keyboard-response","324","837530","0.0-6.0-0.159","ANBL","4","f","rechts","21","","fixation","","","",""
"949","img/90_30.png","70","image-keyboard-response","325","838480","0.0-6.0-1.159","ANBL","4","f","rechts","21","","","self","j","90","false"
"null","<div style=""font-size:60px;"">+</div>","null","html-keyboard-response","326","838932","0.0-6.0-0.160","ANBL","4","f","rechts","21","","fixation","","","",""
"1794","img/L90_180.png","70","image-keyboard-response","327","840727","0.0-6.0-1.160","ANBL","4","f","rechts","21","","","self","f","90","true"
"null","<div style=""font-size:60px;"">+</div>","null","html-keyboard-response","328","841029","0.0-6.0-0.161","ANBL","4","f","rechts","21","","fixation","","","",""
"1114","img/150_300.png","74","image-keyboard-response","329","842143","0.0-6.0-1.161","ANBL","4","f","rechts","21","","","self","j","150","true"
"null","<div style=""font-size:60px;"">+</div>","null","html-keyboard-response","330","842645","0.0-6.0-0.162","ANBL","4","f","rechts","21","","fixation","","","",""
"1079","img/30_300.png","70","image-keyboard-response","331","843724","0.0-6.0-1.162","ANBL","4","f","rechts","21","","","self","f","30","true"
"null","<div style=""font-size:60px;"">+</div>","null","html-keyboard-response","332","844026","0.0-6.0-0.163","ANBL","4","f","rechts","21","","fixation","","","",""
"985","img/150_180.png","74","image-keyboard-response","333","845013","0.0-6.0-1.163","ANBL","4","f","rechts","21","","","self","j","150","true"
"null","<div style=""font-size:60px;"">+</div>","null","html-keyboard-response","334","845464","0.0-6.0-0.164","ANBL","4","f","rechts","21","","fixation","","","",""
"982","img/60_180.png","74","image-keyboard-response","335","846447","0.0-6.0-1.164","ANBL","4","f","rechts","21","","","self","j","60","true"
"null","<div style=""font-size:60px;"">+</div>","null","html-keyboard-response","336","846749","0.0-6.0-0.165","ANBL","4","f","rechts","21","","fixation","","","",""
"1069","img/90_180.png","74","image-keyboard-response","337","847819","0.0-6.0-1.165","ANBL","4","f","rechts","21","","","self","j","90","true"
"null","<div style=""font-size:60px;"">+</div>","null","html-keyboard-response","338","848120","0.0-6.0-0.166","ANBL","4","f","rechts","21","","fixation","","","",""
"1016","img/30_90.png","70","image-keyboard-response","339","849137","0.0-6.0-1.166","ANBL","4","f","rechts","21","","","self","j","30","false"
"null","<div style=""font-size:60px;"">+</div>","null","html-keyboard-response","340","849589","0.0-6.0-0.167","ANBL","4","f","rechts","21","","fixation","","","",""
"1167","img/60_210.png","74","image-keyboard-response","341","850757","0.0-6.0-1.167","ANBL","4","f","rechts","21","","","self","j","60","true"
"null","<div style=""font-size:60px;"">+</div>","null","html-keyboard-response","342","851109","0.0-6.0-0.168","ANBL","4","f","rechts","21","","fixation","","","",""
"1006","img/30_120.png","74","image-keyboard-response","343","852115","0.0-6.0-1.168","ANBL","4","f","rechts","21","","","self","j","30","true"
"null","<div style=""font-size:60px;"">+</div>","null","html-keyboard-response","344","852467","0.0-6.0-0.169","ANBL","4","f","rechts","21","","fixation","","","",""
"1078","img/90_210.png","74","image-keyboard-response","345","853545","0.0-6.0-1.169","ANBL","4","f","rechts","21","","","self","j","90","true"
"null","<div style=""font-size:60px;"">+</div>","null","html-keyboard-response","346","853947","0.0-6.0-0.170","ANBL","4","f","rechts","21","","fixation","","","",""
"912","img/60_330.png","70","image-keyboard-response","347","854860","0.0-6.0-1.170","ANBL","4","f","rechts","21","","","self","f","60","true"
"null","<div style=""font-size:60px;"">+</div>","null","html-keyboard-response","348","855312","0.0-6.0-0.171","ANBL","4","f","rechts","21","","fixation","","","",""
"1366","img/120_30.png","74","image-keyboard-response","349","856679","0.0-6.0-1.171","ANBL","4","f","rechts","21","","","self","j","120","true"
"null","<div style=""font-size:60px;"">+</div>","null","html-keyboard-response","350","856980","0.0-6.0-0.172","ANBL","4","f","rechts","21","","fixation","","","",""
"1498","img/60_30.png","74","image-keyboard-response","351","858479","0.0-6.0-1.172","ANBL","4","f","rechts","21","","","self","j","60","true"
"null","<div style=""font-size:60px;"">+</div>","null","html-keyboard-response","352","858980","0.0-6.0-0.173","ANBL","4","f","rechts","21","","fixation","","","",""
"951","img/90_120.png","70","image-keyboard-response","353","859932","0.0-6.0-1.173","ANBL","4","f","rechts","21","","","self","f","90","true"
"null","<div style=""font-size:60px;"">+</div>","null","html-keyboard-response","354","860334","0.0-6.0-0.174","ANBL","4","f","rechts","21","","fixation","","","",""
"1186","img/L150_180.png","70","image-keyboard-response","355","861520","0.0-6.0-1.174","ANBL","4","f","rechts","21","","","self","f","150","true"
"null","<div style=""font-size:60px;"">+</div>","null","html-keyboard-response","356","861822","0.0-6.0-0.175","ANBL","4","f","rechts","21","","fixation","","","",""
"1017","img/30_240.png","70","image-keyboard-response","357","862839","0.0-6.0-1.175","ANBL","4","f","rechts","21","","","self","f","30","true"
"null","<div style=""font-size:60px;"">+</div>","null","html-keyboard-response","358","863141","0.0-6.0-0.176","ANBL","4","f","rechts","21","","fixation","","","",""
"890","img/60_90.png","74","image-keyboard-response","359","864031","0.0-6.0-1.176","ANBL","4","f","rechts","21","","","self","j","60","true"
"null","<div style=""font-size:60px;"">+</div>","null","html-keyboard-response","360","864533","0.0-6.0-0.177","ANBL","4","f","rechts","21","","fixation","","","",""
"762","img/0_30.png","74","image-keyboard-response","361","865296","0.0-6.0-1.177","ANBL","4","f","rechts","21","","","self","j","0","true"
"null","<div style=""font-size:60px;"">+</div>","null","html-keyboard-response","362","865698","0.0-6.0-0.178","ANBL","4","f","rechts","21","","fixation","","","",""
"890","img/120_270.png","74","image-keyboard-response","363","866589","0.0-6.0-1.178","ANBL","4","f","rechts","21","","","self","j","120","true"
"null","<div style=""font-size:60px;"">+</div>","null","html-keyboard-response","364","866941","0.0-6.0-0.179","ANBL","4","f","rechts","21","","fixation","","","",""
"836","img/0_90.png","74","image-keyboard-response","365","867779","0.0-6.0-1.179","ANBL","4","f","rechts","21","","","self","j","0","true"
"null","<div style=""font-size:60px;"">+</div>","null","html-keyboard-response","366","868080","0.0-6.0-0.180","ANBL","4","f","rechts","21","","fixation","","","",""
"1069","img/120_330.png","70","image-keyboard-response","367","869150","0.0-6.0-1.180","ANBL","4","f","rechts","21","","","self","f","120","true"
"null","<div style=""font-size:60px;"">+</div>","null","html-keyboard-response","368","869651","0.0-6.0-0.181","ANBL","4","f","rechts","21","","fixation","","","",""
"710","img/30_180.png","74","image-keyboard-response","369","870363","0.0-6.0-1.181","ANBL","4","f","rechts","21","","","self","j","30","true"
"null","<div style=""font-size:60px;"">+</div>","null","html-keyboard-response","370","870764","0.0-6.0-0.182","ANBL","4","f","rechts","21","","fixation","","","",""
"753","img/L30_180.png","70","image-keyboard-response","371","871519","0.0-6.0-1.182","ANBL","4","f","rechts","21","","","self","f","30","true"
"null","<div style=""font-size:60px;"">+</div>","null","html-keyboard-response","372","871970","0.0-6.0-0.183","ANBL","4","f","rechts","21","","fixation","","","",""
"852","img/30_60.png","74","image-keyboard-response","373","872824","0.0-6.0-1.183","ANBL","4","f","rechts","21","","","self","j","30","true"
"null","<div style=""font-size:60px;"">+</div>","null","html-keyboard-response","374","873325","0.0-6.0-0.184","ANBL","4","f","rechts","21","","fixation","","","",""
"1144","img/150_270.png","74","image-keyboard-response","375","874471","0.0-6.0-1.184","ANBL","4","f","rechts","21","","","self","j","150","true"
"null","<div style=""font-size:60px;"">+</div>","null","html-keyboard-response","376","874772","0.0-6.0-0.185","ANBL","4","f","rechts","21","","fixation","","","",""
"1615","img/120_210.png","74","image-keyboard-response","377","876389","0.0-6.0-1.185","ANBL","4","f","rechts","21","","","self","j","120","true"
"null","<div style=""font-size:60px;"">+</div>","null","html-keyboard-response","378","876790","0.0-6.0-0.186","ANBL","4","f","rechts","21","","fixation","","","",""
"976","img/90_150.png","70","image-keyboard-response","379","877767","0.0-6.0-1.186","ANBL","4","f","rechts","21","","","self","f","90","true"
"null","<div style=""font-size:60px;"">+</div>","null","html-keyboard-response","380","878118","0.0-6.0-0.187","ANBL","4","f","rechts","21","","fixation","","","",""
"1144","img/120_90.png","70","image-keyboard-response","381","879264","0.0-6.0-1.187","ANBL","4","f","rechts","21","","","self","f","120","true"
"null","<div style=""font-size:60px;"">+</div>","null","html-keyboard-response","382","879715","0.0-6.0-0.188","ANBL","4","f","rechts","21","","fixation","","","",""
"983","img/150_120.png","70","image-keyboard-response","383","880700","0.0-6.0-1.188","ANBL","4","f","rechts","21","","","self","f","150","true"
"null","<div style=""font-size:60px;"">+</div>","null","html-keyboard-response","384","881151","0.0-6.0-0.189","ANBL","4","f","rechts","21","","fixation","","","",""
"806","img/0_240.png","70","image-keyboard-response","385","881959","0.0-6.0-1.189","ANBL","4","f","rechts","21","","","self","f","0","true"
"null","<div style=""font-size:60px;"">+</div>","null","html-keyboard-response","386","882410","0.0-6.0-0.190","ANBL","4","f","rechts","21","","fixation","","","",""
"673","img/0_60.png","74","image-keyboard-response","387","883085","0.0-6.0-1.190","ANBL","4","f","rechts","21","","","self","j","0","true"
"null","<div style=""font-size:60px;"">+</div>","null","html-keyboard-response","388","883536","0.0-6.0-0.191","ANBL","4","f","rechts","21","","fixation","","","",""
"858","img/90_240.png","74","image-keyboard-response","389","884395","0.0-6.0-1.191","ANBL","4","f","rechts","21","","","self","j","90","true"
"null","<div style=""font-size:60px;"">+</div>","null","html-keyboard-response","390","884846","0.0-6.0-0.192","ANBL","4","f","rechts","21","","fixation","","","",""
"710","img/0_330.png","70","image-keyboard-response","391","885557","0.0-6.0-1.192","ANBL","4","f","rechts","21","","","self","f","0","true"
"null","<div style=""font-size:60px;"">+</div>","null","html-keyboard-response","392","885959","0.0-6.0-0.193","ANBL","4","f","rechts","21","","fixation","","","",""
"1303","img/150_60.png","70","image-keyboard-response","393","887264","0.0-6.0-1.193","ANBL","4","f","rechts","21","","","self","f","150","true"
"null","<div style=""font-size:60px;"">+</div>","null","html-keyboard-response","394","887765","0.0-6.0-0.194","ANBL","4","f","rechts","21","","fixation","","","",""
"1011","img/120_150.png","70","image-keyboard-response","395","888777","0.0-6.0-1.194","ANBL","4","f","rechts","21","","","self","f","120","true"
"null","<div style=""font-size:60px;"">+</div>","null","html-keyboard-response","396","889129","0.0-6.0-0.195","ANBL","4","f","rechts","21","","fixation","","","",""
"798","img/0_300.png","70","image-keyboard-response","397","889929","0.0-6.0-1.195","ANBL","4","f","rechts","21","","","self","f","0","true"
"null","<div style=""font-size:60px;"">+</div>","null","html-keyboard-response","398","890230","0.0-6.0-0.196","ANBL","4","f","rechts","21","","fixation","","","",""
"1076","img/150_90.png","70","image-keyboard-response","399","891307","0.0-6.0-1.196","ANBL","4","f","rechts","21","","","self","f","150","true"
"null","<div style=""font-size:60px;"">+</div>","null","html-keyboard-response","400","891809","0.0-6.0-0.197","ANBL","4","f","rechts","21","","fixation","","","",""
"701","img/150_240.png","74","image-keyboard-response","401","892511","0.0-6.0-1.197","ANBL","4","f","rechts","21","","","self","j","150","true"
"null","<div style=""font-size:60px;"">+</div>","null","html-keyboard-response","402","892962","0.0-6.0-0.198","ANBL","4","f","rechts","21","","fixation","","","",""
"1344","img/90_330.png","70","image-keyboard-response","403","894308","0.0-6.0-1.198","ANBL","4","f","rechts","21","","","self","f","90","true"
"null","<div style=""font-size:60px;"">+</div>","null","html-keyboard-response","404","894759","0.0-6.0-0.199","ANBL","4","f","rechts","21","","fixation","","","",""
"1126","img/60_270.png","70","image-keyboard-response","405","895887","0.0-6.0-1.199","ANBL","4","f","rechts","21","","","self","f","60","true"
"null","<div style=""font-size:60px;"">+</div>","null","html-keyboard-response","406","896288","0.0-6.0-0.200","ANBL","4","f","rechts","21","","fixation","","","",""
"1355","img/90_60.png","74","image-keyboard-response","407","897644","0.0-6.0-1.200","ANBL","4","f","rechts","21","","","self","j","90","true"
"null","<div style=""font-size:60px;"">+</div>","null","html-keyboard-response","408","898095","0.0-6.0-0.201","ANBL","4","f","rechts","21","","fixation","","","",""
"886","img/30_270.png","70","image-keyboard-response","409","898983","0.0-6.0-1.201","ANBL","4","f","rechts","21","","","self","f","30","true"
"null","<div style=""font-size:60px;"">+</div>","null","html-keyboard-response","410","899334","0.0-6.0-0.202","ANBL","4","f","rechts","21","","fixation","","","",""
"901","img/60_150.png","70","image-keyboard-response","411","900237","0.0-6.0-1.202","ANBL","4","f","rechts","21","","","self","f","60","true"
"null","<div style=""font-size:60px;"">+</div>","null","html-keyboard-response","412","900587","0.0-6.0-0.203","ANBL","4","f","rechts","21","","fixation","","","",""
"878","img/0_210.png","70","image-keyboard-response","413","901467","0.0-6.0-1.203","ANBL","4","f","rechts","21","","","self","f","0","true"
"null","<div style=""font-size:60px;"">+</div>","null","html-keyboard-response","414","901768","0.0-6.0-0.204","ANBL","4","f","rechts","21","","fixation","","","",""
"794","img/0_270.png","70","image-keyboard-response","415","902564","0.0-6.0-1.204","ANBL","4","f","rechts","21","","","self","f","0","true"
"null","<div style=""font-size:60px;"">+</div>","null","html-keyboard-response","416","903065","0.0-6.0-0.205","ANBL","4","f","rechts","21","","fixation","","","",""
"663","img/0_120.png","74","image-keyboard-response","417","903729","0.0-6.0-1.205","ANBL","4","f","rechts","21","","","self","j","0","true"
"null","<div style=""font-size:60px;"">+</div>","null","html-keyboard-response","418","904131","0.0-6.0-0.206","ANBL","4","f","rechts","21","","fixation","","","",""
"671","img/120_180.png","74","image-keyboard-response","419","904803","0.0-6.0-1.206","ANBL","4","f","rechts","21","","","self","j","120","true"
"null","<div style=""font-size:60px;"">+</div>","null","html-keyboard-response","420","905206","0.0-6.0-0.207","ANBL","4","f","rechts","21","","fixation","","","",""
"771","img/L120_180.png","70","image-keyboard-response","421","905978","0.0-6.0-1.207","ANBL","4","f","rechts","21","","","self","f","120","true"
"8620","<p>Du hast in 94% der Versuche korrekt entschieden.</p><p>Deine durchschnittliche Reaktionszeit war  947ms.</p><p>Dr&uuml;cke eine beliebige Taste, um die Session zu beenden. Vielen Dank!</p>","75","html-keyboard-response","422","914599","0.0-7.0","ANBL","4","f","rechts","21","","","","","",""
