"rt","stimulus","key_press","trial_type","trial_index","time_elapsed","internal_node_id","subject","session","sex","handedness","age","responses","test_part","condition","correct_response","angle","correct"
"1207","<p>Mental Rotation Experiment.</p> <p>Dr&uuml;cke eine beliebige Taste, um anzufangen.</p>","72","html-keyboard-response","0","1209","0.0-0.0","ANBL","3","f","rechts","21","","","","","",""
"3868","","","survey-text","1","5078","0.0-1.0","ANBL","3","f","rechts","21","{""Q0"":""ANBL""}","","","","",""
"3688","","","survey-text","2","8768","0.0-2.0","ANBL","3","f","rechts","21","{""Q0"":""3""}","","","","",""
"2771","","","survey-multi-choice","3","11541","0.0-3.0","ANBL","3","f","rechts","21","{""Q0"":""f"",""Q1"":""rechts""}","","","","",""
"8914","","","survey-text","4","20456","0.0-4.0","ANBL","3","f","rechts","21","{""Q0"":""21""}","","","","",""
"786543","<p> Stell dir vor, dass du vor einem runden Tisch stehst, auf dem sich ein blauer Ball am Tischrand befindet. Entlang des Tischrands ist jeweils ein verschieden langer Pfeil. Nun bewegst du dich entlang dieses Pfeils bis an seine Spitze. Wenn du am Ende des Pfeils angekommen bist, schau zur Tischmitte. </p> <img src='img/90_180.png'></img> <br> <p>Entscheide dann, ob der Ball von deiner neuen (vorgestellten) Position links oder rechts von dir liegt.</p> <p>Dr&uuml;cke die <strong>'f'</strong>-Taste f&uuml;r links, die <strong>'j'</strong>-Taste f&uuml;r rechts.</p> <br><p> Das Bild wird jeweils 1 Sekunde lang pr&auml;sentiert. Du hast 3 Sekunden Zeit eine Entscheidung zu treffen.</p>","74","html-keyboard-response","5","807001","0.0-5.0","ANBL","3","f","rechts","21","","","","","",""
"null","<div style=""font-size:60px;"">+</div>","null","html-keyboard-response","6","808404","0.0-6.0-0.0","ANBL","3","f","rechts","21","","fixation","","","",""
"968","img/0_120.png","74","image-keyboard-response","7","809373","0.0-6.0-1.0","ANBL","3","f","rechts","21","","","self","j","0","true"
"null","<div style=""font-size:60px;"">+</div>","null","html-keyboard-response","8","809775","0.0-6.0-0.1","ANBL","3","f","rechts","21","","fixation","","","",""
"1070","img/90_180.png","74","image-keyboard-response","9","810846","0.0-6.0-1.1","ANBL","3","f","rechts","21","","","self","j","90","true"
"null","<div style=""font-size:60px;"">+</div>","null","html-keyboard-response","10","811248","0.0-6.0-0.2","ANBL","3","f","rechts","21","","fixation","","","",""
"697","img/0_30.png","74","image-keyboard-response","11","811947","0.0-6.0-1.2","ANBL","3","f","rechts","21","","","self","j","0","true"
"null","<div style=""font-size:60px;"">+</div>","null","html-keyboard-response","12","812448","0.0-6.0-0.3","ANBL","3","f","rechts","21","","fixation","","","",""
"1251","img/30_90.png","70","image-keyboard-response","13","813700","0.0-6.0-1.3","ANBL","3","f","rechts","21","","","self","j","30","false"
"null","<div style=""font-size:60px;"">+</div>","null","html-keyboard-response","14","814052","0.0-6.0-0.4","ANBL","3","f","rechts","21","","fixation","","","",""
"805","img/0_240.png","70","image-keyboard-response","15","814858","0.0-6.0-1.4","ANBL","3","f","rechts","21","","","self","f","0","true"
"null","<div style=""font-size:60px;"">+</div>","null","html-keyboard-response","16","815160","0.0-6.0-0.5","ANBL","3","f","rechts","21","","fixation","","","",""
"1199","img/150_270.png","74","image-keyboard-response","17","816360","0.0-6.0-1.5","ANBL","3","f","rechts","21","","","self","j","150","true"
"null","<div style=""font-size:60px;"">+</div>","null","html-keyboard-response","18","816862","0.0-6.0-0.6","ANBL","3","f","rechts","21","","fixation","","","",""
"818","img/60_180.png","74","image-keyboard-response","19","817681","0.0-6.0-1.6","ANBL","3","f","rechts","21","","","self","j","60","true"
"null","<div style=""font-size:60px;"">+</div>","null","html-keyboard-response","20","818083","0.0-6.0-0.7","ANBL","3","f","rechts","21","","fixation","","","",""
"1095","img/120_30.png","74","image-keyboard-response","21","819179","0.0-6.0-1.7","ANBL","3","f","rechts","21","","","self","j","120","true"
"null","<div style=""font-size:60px;"">+</div>","null","html-keyboard-response","22","819580","0.0-6.0-0.8","ANBL","3","f","rechts","21","","fixation","","","",""
"907","img/150_180.png","74","image-keyboard-response","23","820488","0.0-6.0-1.8","ANBL","3","f","rechts","21","","","self","j","150","true"
"null","<div style=""font-size:60px;"">+</div>","null","html-keyboard-response","24","820890","0.0-6.0-0.9","ANBL","3","f","rechts","21","","fixation","","","",""
"967","img/L30_180.png","70","image-keyboard-response","25","821857","0.0-6.0-1.9","ANBL","3","f","rechts","21","","","self","f","30","true"
"null","<div style=""font-size:60px;"">+</div>","null","html-keyboard-response","26","822309","0.0-6.0-0.10","ANBL","3","f","rechts","21","","fixation","","","",""
"652","img/0_210.png","70","image-keyboard-response","27","822961","0.0-6.0-1.10","ANBL","3","f","rechts","21","","","self","f","0","true"
"null","<div style=""font-size:60px;"">+</div>","null","html-keyboard-response","28","823463","0.0-6.0-0.11","ANBL","3","f","rechts","21","","fixation","","","",""
"673","img/0_150.png","74","image-keyboard-response","29","824136","0.0-6.0-1.11","ANBL","3","f","rechts","21","","","self","j","0","true"
"null","<div style=""font-size:60px;"">+</div>","null","html-keyboard-response","30","824587","0.0-6.0-0.12","ANBL","3","f","rechts","21","","fixation","","","",""
"1075","img/90_240.png","74","image-keyboard-response","31","825663","0.0-6.0-1.12","ANBL","3","f","rechts","21","","","self","j","90","true"
"null","<div style=""font-size:60px;"">+</div>","null","html-keyboard-response","32","825965","0.0-6.0-0.13","ANBL","3","f","rechts","21","","fixation","","","",""
"1252","img/30_240.png","70","image-keyboard-response","33","827218","0.0-6.0-1.13","ANBL","3","f","rechts","21","","","self","f","30","true"
"null","<div style=""font-size:60px;"">+</div>","null","html-keyboard-response","34","827519","0.0-6.0-0.14","ANBL","3","f","rechts","21","","fixation","","","",""
"1173","img/L150_180.png","70","image-keyboard-response","35","828694","0.0-6.0-1.14","ANBL","3","f","rechts","21","","","self","f","150","true"
"null","<div style=""font-size:60px;"">+</div>","null","html-keyboard-response","36","829045","0.0-6.0-0.15","ANBL","3","f","rechts","21","","fixation","","","",""
"853","img/90_30.png","74","image-keyboard-response","37","829899","0.0-6.0-1.15","ANBL","3","f","rechts","21","","","self","j","90","true"
"null","<div style=""font-size:60px;"">+</div>","null","html-keyboard-response","38","830401","0.0-6.0-0.16","ANBL","3","f","rechts","21","","fixation","","","",""
"826","img/120_180.png","74","image-keyboard-response","39","831227","0.0-6.0-1.16","ANBL","3","f","rechts","21","","","self","j","120","true"
"null","<div style=""font-size:60px;"">+</div>","null","html-keyboard-response","40","831578","0.0-6.0-0.17","ANBL","3","f","rechts","21","","fixation","","","",""
"835","img/60_270.png","70","image-keyboard-response","41","832414","0.0-6.0-1.17","ANBL","3","f","rechts","21","","","self","f","60","true"
"null","<div style=""font-size:60px;"">+</div>","null","html-keyboard-response","42","832866","0.0-6.0-0.18","ANBL","3","f","rechts","21","","fixation","","","",""
"590","img/0_330.png","70","image-keyboard-response","43","833456","0.0-6.0-1.18","ANBL","3","f","rechts","21","","","self","f","0","true"
"null","<div style=""font-size:60px;"">+</div>","null","html-keyboard-response","44","833957","0.0-6.0-0.19","ANBL","3","f","rechts","21","","fixation","","","",""
"1078","img/150_120.png","70","image-keyboard-response","45","835037","0.0-6.0-1.19","ANBL","3","f","rechts","21","","","self","f","150","true"
"null","<div style=""font-size:60px;"">+</div>","null","html-keyboard-response","46","835438","0.0-6.0-0.20","ANBL","3","f","rechts","21","","fixation","","","",""
"1067","img/120_150.png","70","image-keyboard-response","47","836506","0.0-6.0-1.20","ANBL","3","f","rechts","21","","","self","f","120","true"
"null","<div style=""font-size:60px;"">+</div>","null","html-keyboard-response","48","836858","0.0-6.0-0.21","ANBL","3","f","rechts","21","","fixation","","","",""
"938","img/60_210.png","74","image-keyboard-response","49","837798","0.0-6.0-1.21","ANBL","3","f","rechts","21","","","self","j","60","true"
"null","<div style=""font-size:60px;"">+</div>","null","html-keyboard-response","50","838249","0.0-6.0-0.22","ANBL","3","f","rechts","21","","fixation","","","",""
"1075","img/150_240.png","74","image-keyboard-response","51","839326","0.0-6.0-1.22","ANBL","3","f","rechts","21","","","self","j","150","true"
"null","<div style=""font-size:60px;"">+</div>","null","html-keyboard-response","52","839777","0.0-6.0-0.23","ANBL","3","f","rechts","21","","fixation","","","",""
"792","img/90_210.png","74","image-keyboard-response","53","840571","0.0-6.0-1.23","ANBL","3","f","rechts","21","","","self","j","90","true"
"null","<div style=""font-size:60px;"">+</div>","null","html-keyboard-response","54","840922","0.0-6.0-0.24","ANBL","3","f","rechts","21","","fixation","","","",""
"823","img/L120_180.png","70","image-keyboard-response","55","841747","0.0-6.0-1.24","ANBL","3","f","rechts","21","","","self","f","120","true"
"null","<div style=""font-size:60px;"">+</div>","null","html-keyboard-response","56","842198","0.0-6.0-0.25","ANBL","3","f","rechts","21","","fixation","","","",""
"1123","img/90_330.png","70","image-keyboard-response","57","843323","0.0-6.0-1.25","ANBL","3","f","rechts","21","","","self","f","90","true"
"null","<div style=""font-size:60px;"">+</div>","null","html-keyboard-response","58","843824","0.0-6.0-0.26","ANBL","3","f","rechts","21","","fixation","","","",""
"1082","img/90_120.png","70","image-keyboard-response","59","844908","0.0-6.0-1.26","ANBL","3","f","rechts","21","","","self","f","90","true"
"null","<div style=""font-size:60px;"">+</div>","null","html-keyboard-response","60","845359","0.0-6.0-0.27","ANBL","3","f","rechts","21","","fixation","","","",""
"612","img/0_90.png","74","image-keyboard-response","61","845973","0.0-6.0-1.27","ANBL","3","f","rechts","21","","","self","j","0","true"
"null","<div style=""font-size:60px;"">+</div>","null","html-keyboard-response","62","846324","0.0-6.0-0.28","ANBL","3","f","rechts","21","","fixation","","","",""
"690","img/150_90.png","70","image-keyboard-response","63","847016","0.0-6.0-1.28","ANBL","3","f","rechts","21","","","self","f","150","true"
"null","<div style=""font-size:60px;"">+</div>","null","html-keyboard-response","64","847517","0.0-6.0-0.29","ANBL","3","f","rechts","21","","fixation","","","",""
"1295","img/150_60.png","70","image-keyboard-response","65","848813","0.0-6.0-1.29","ANBL","3","f","rechts","21","","","self","f","150","true"
"null","<div style=""font-size:60px;"">+</div>","null","html-keyboard-response","66","849165","0.0-6.0-0.30","ANBL","3","f","rechts","21","","fixation","","","",""
"1758","img/30_60.png","74","image-keyboard-response","67","850924","0.0-6.0-1.30","ANBL","3","f","rechts","21","","","self","j","30","true"
"null","<div style=""font-size:60px;"">+</div>","null","html-keyboard-response","68","851326","0.0-6.0-0.31","ANBL","3","f","rechts","21","","fixation","","","",""
"932","img/30_120.png","74","image-keyboard-response","69","852260","0.0-6.0-1.31","ANBL","3","f","rechts","21","","","self","j","30","true"
"null","<div style=""font-size:60px;"">+</div>","null","html-keyboard-response","70","852561","0.0-6.0-0.32","ANBL","3","f","rechts","21","","fixation","","","",""
"1079","img/120_210.png","74","image-keyboard-response","71","853641","0.0-6.0-1.32","ANBL","3","f","rechts","21","","","self","j","120","true"
"null","<div style=""font-size:60px;"">+</div>","null","html-keyboard-response","72","854043","0.0-6.0-0.33","ANBL","3","f","rechts","21","","fixation","","","",""
"671","img/0_60.png","74","image-keyboard-response","73","854715","0.0-6.0-1.33","ANBL","3","f","rechts","21","","","self","j","0","true"
"null","<div style=""font-size:60px;"">+</div>","null","html-keyboard-response","74","855167","0.0-6.0-0.34","ANBL","3","f","rechts","21","","fixation","","","",""
"848","img/60_30.png","74","image-keyboard-response","75","856016","0.0-6.0-1.34","ANBL","3","f","rechts","21","","","self","j","60","true"
"null","<div style=""font-size:60px;"">+</div>","null","html-keyboard-response","76","856368","0.0-6.0-0.35","ANBL","3","f","rechts","21","","fixation","","","",""
"1299","img/120_270.png","74","image-keyboard-response","77","857668","0.0-6.0-1.35","ANBL","3","f","rechts","21","","","self","j","120","true"
"null","<div style=""font-size:60px;"">+</div>","null","html-keyboard-response","78","858020","0.0-6.0-0.36","ANBL","3","f","rechts","21","","fixation","","","",""
"971","img/30_180.png","74","image-keyboard-response","79","858992","0.0-6.0-1.36","ANBL","3","f","rechts","21","","","self","j","30","true"
"null","<div style=""font-size:60px;"">+</div>","null","html-keyboard-response","80","859344","0.0-6.0-0.37","ANBL","3","f","rechts","21","","fixation","","","",""
"777","img/60_330.png","70","image-keyboard-response","81","860122","0.0-6.0-1.37","ANBL","3","f","rechts","21","","","self","f","60","true"
"null","<div style=""font-size:60px;"">+</div>","null","html-keyboard-response","82","860424","0.0-6.0-0.38","ANBL","3","f","rechts","21","","fixation","","","",""
"811","img/0_270.png","70","image-keyboard-response","83","861236","0.0-6.0-1.38","ANBL","3","f","rechts","21","","","self","f","0","true"
"null","<div style=""font-size:60px;"">+</div>","null","html-keyboard-response","84","861588","0.0-6.0-0.39","ANBL","3","f","rechts","21","","fixation","","","",""
"886","img/90_60.png","74","image-keyboard-response","85","862474","0.0-6.0-1.39","ANBL","3","f","rechts","21","","","self","j","90","true"
"null","<div style=""font-size:60px;"">+</div>","null","html-keyboard-response","86","862876","0.0-6.0-0.40","ANBL","3","f","rechts","21","","fixation","","","",""
"806","img/30_300.png","70","image-keyboard-response","87","863683","0.0-6.0-1.40","ANBL","3","f","rechts","21","","","self","f","30","true"
"null","<div style=""font-size:60px;"">+</div>","null","html-keyboard-response","88","864085","0.0-6.0-0.41","ANBL","3","f","rechts","21","","fixation","","","",""
"997","img/60_150.png","70","image-keyboard-response","89","865083","0.0-6.0-1.41","ANBL","3","f","rechts","21","","","self","f","60","true"
"null","<div style=""font-size:60px;"">+</div>","null","html-keyboard-response","90","865485","0.0-6.0-0.42","ANBL","3","f","rechts","21","","fixation","","","",""
"1072","img/120_90.png","70","image-keyboard-response","91","866558","0.0-6.0-1.42","ANBL","3","f","rechts","21","","","self","f","120","true"
"null","<div style=""font-size:60px;"">+</div>","null","html-keyboard-response","92","866910","0.0-6.0-0.43","ANBL","3","f","rechts","21","","fixation","","","",""
"754","img/L60_180.png","70","image-keyboard-response","93","867665","0.0-6.0-1.43","ANBL","3","f","rechts","21","","","self","f","60","true"
"null","<div style=""font-size:60px;"">+</div>","null","html-keyboard-response","94","868167","0.0-6.0-0.44","ANBL","3","f","rechts","21","","fixation","","","",""
"764","img/30_270.png","70","image-keyboard-response","95","868932","0.0-6.0-1.44","ANBL","3","f","rechts","21","","","self","f","30","true"
"null","<div style=""font-size:60px;"">+</div>","null","html-keyboard-response","96","869434","0.0-6.0-0.45","ANBL","3","f","rechts","21","","fixation","","","",""
"1076","img/60_90.png","70","image-keyboard-response","97","870511","0.0-6.0-1.45","ANBL","3","f","rechts","21","","","self","j","60","false"
"null","<div style=""font-size:60px;"">+</div>","null","html-keyboard-response","98","870913","0.0-6.0-0.46","ANBL","3","f","rechts","21","","fixation","","","",""
"1868","img/120_330.png","70","image-keyboard-response","99","872781","0.0-6.0-1.46","ANBL","3","f","rechts","21","","","self","f","120","true"
"null","<div style=""font-size:60px;"">+</div>","null","html-keyboard-response","100","873233","0.0-6.0-0.47","ANBL","3","f","rechts","21","","fixation","","","",""
"653","img/0_300.png","70","image-keyboard-response","101","873887","0.0-6.0-1.47","ANBL","3","f","rechts","21","","","self","f","0","true"
"null","<div style=""font-size:60px;"">+</div>","null","html-keyboard-response","102","874289","0.0-6.0-0.48","ANBL","3","f","rechts","21","","fixation","","","",""
"1264","img/150_300.png","74","image-keyboard-response","103","875554","0.0-6.0-1.48","ANBL","3","f","rechts","21","","","self","j","150","true"
"null","<div style=""font-size:60px;"">+</div>","null","html-keyboard-response","104","876005","0.0-6.0-0.49","ANBL","3","f","rechts","21","","fixation","","","",""
"1006","img/90_300.png","70","image-keyboard-response","105","877013","0.0-6.0-1.49","ANBL","3","f","rechts","21","","","self","f","90","true"
"null","<div style=""font-size:60px;"">+</div>","null","html-keyboard-response","106","877464","0.0-6.0-0.50","ANBL","3","f","rechts","21","","fixation","","","",""
"773","img/90_150.png","70","image-keyboard-response","107","878238","0.0-6.0-1.50","ANBL","3","f","rechts","21","","","self","f","90","true"
"null","<div style=""font-size:60px;"">+</div>","null","html-keyboard-response","108","878739","0.0-6.0-0.51","ANBL","3","f","rechts","21","","fixation","","","",""
"788","img/L90_180.png","70","image-keyboard-response","109","879528","0.0-6.0-1.51","ANBL","3","f","rechts","21","","","self","f","90","true"
"null","<div style=""font-size:60px;"">+</div>","null","html-keyboard-response","110","879930","0.0-6.0-0.52","ANBL","3","f","rechts","21","","fixation","","","",""
"635","img/0_60.png","74","image-keyboard-response","111","880565","0.0-6.0-1.52","ANBL","3","f","rechts","21","","","self","j","0","true"
"null","<div style=""font-size:60px;"">+</div>","null","html-keyboard-response","112","880917","0.0-6.0-0.53","ANBL","3","f","rechts","21","","fixation","","","",""
"882","img/30_60.png","74","image-keyboard-response","113","881799","0.0-6.0-1.53","ANBL","3","f","rechts","21","","","self","j","30","true"
"null","<div style=""font-size:60px;"">+</div>","null","html-keyboard-response","114","882201","0.0-6.0-0.54","ANBL","3","f","rechts","21","","fixation","","","",""
"924","img/30_240.png","70","image-keyboard-response","115","883126","0.0-6.0-1.54","ANBL","3","f","rechts","21","","","self","f","30","true"
"null","<div style=""font-size:60px;"">+</div>","null","html-keyboard-response","116","883528","0.0-6.0-0.55","ANBL","3","f","rechts","21","","fixation","","","",""
"889","img/L60_180.png","70","image-keyboard-response","117","884417","0.0-6.0-1.55","ANBL","3","f","rechts","21","","","self","f","60","true"
"null","<div style=""font-size:60px;"">+</div>","null","html-keyboard-response","118","884819","0.0-6.0-0.56","ANBL","3","f","rechts","21","","fixation","","","",""
"633","img/L30_180.png","70","image-keyboard-response","119","885453","0.0-6.0-1.56","ANBL","3","f","rechts","21","","","self","f","30","true"
"null","<div style=""font-size:60px;"">+</div>","null","html-keyboard-response","120","885904","0.0-6.0-0.57","ANBL","3","f","rechts","21","","fixation","","","",""
"1135","img/90_240.png","74","image-keyboard-response","121","887041","0.0-6.0-1.57","ANBL","3","f","rechts","21","","","self","j","90","true"
"null","<div style=""font-size:60px;"">+</div>","null","html-keyboard-response","122","887442","0.0-6.0-0.58","ANBL","3","f","rechts","21","","fixation","","","",""
"1087","img/60_30.png","74","image-keyboard-response","123","888531","0.0-6.0-1.58","ANBL","3","f","rechts","21","","","self","j","60","true"
"null","<div style=""font-size:60px;"">+</div>","null","html-keyboard-response","124","888832","0.0-6.0-0.59","ANBL","3","f","rechts","21","","fixation","","","",""
"913","img/0_120.png","74","image-keyboard-response","125","889747","0.0-6.0-1.59","ANBL","3","f","rechts","21","","","self","j","0","true"
"null","<div style=""font-size:60px;"">+</div>","null","html-keyboard-response","126","890148","0.0-6.0-0.60","ANBL","3","f","rechts","21","","fixation","","","",""
"705","img/60_330.png","70","image-keyboard-response","127","890855","0.0-6.0-1.60","ANBL","3","f","rechts","21","","","self","f","60","true"
"null","<div style=""font-size:60px;"">+</div>","null","html-keyboard-response","128","891356","0.0-6.0-0.61","ANBL","3","f","rechts","21","","fixation","","","",""
"958","img/150_120.png","70","image-keyboard-response","129","892315","0.0-6.0-1.61","ANBL","3","f","rechts","21","","","self","f","150","true"
"null","<div style=""font-size:60px;"">+</div>","null","html-keyboard-response","130","892667","0.0-6.0-0.62","ANBL","3","f","rechts","21","","fixation","","","",""
"737","img/0_240.png","70","image-keyboard-response","131","893406","0.0-6.0-1.62","ANBL","3","f","rechts","21","","","self","f","0","true"
"null","<div style=""font-size:60px;"">+</div>","null","html-keyboard-response","132","893857","0.0-6.0-0.63","ANBL","3","f","rechts","21","","fixation","","","",""
"827","img/120_150.png","70","image-keyboard-response","133","894686","0.0-6.0-1.63","ANBL","3","f","rechts","21","","","self","f","120","true"
"null","<div style=""font-size:60px;"">+</div>","null","html-keyboard-response","134","895137","0.0-6.0-0.64","ANBL","3","f","rechts","21","","fixation","","","",""
"921","img/0_300.png","70","image-keyboard-response","135","896058","0.0-6.0-1.64","ANBL","3","f","rechts","21","","","self","f","0","true"
"null","<div style=""font-size:60px;"">+</div>","null","html-keyboard-response","136","896560","0.0-6.0-0.65","ANBL","3","f","rechts","21","","fixation","","","",""
"1166","img/60_90.png","74","image-keyboard-response","137","897727","0.0-6.0-1.65","ANBL","3","f","rechts","21","","","self","j","60","true"
"null","<div style=""font-size:60px;"">+</div>","null","html-keyboard-response","138","898129","0.0-6.0-0.66","ANBL","3","f","rechts","21","","fixation","","","",""
"981","img/90_330.png","70","image-keyboard-response","139","899111","0.0-6.0-1.66","ANBL","3","f","rechts","21","","","self","f","90","true"
"null","<div style=""font-size:60px;"">+</div>","null","html-keyboard-response","140","899513","0.0-6.0-0.67","ANBL","3","f","rechts","21","","fixation","","","",""
"1085","img/150_60.png","70","image-keyboard-response","141","900599","0.0-6.0-1.67","ANBL","3","f","rechts","21","","","self","f","150","true"
"null","<div style=""font-size:60px;"">+</div>","null","html-keyboard-response","142","901051","0.0-6.0-0.68","ANBL","3","f","rechts","21","","fixation","","","",""
"842","img/L90_180.png","70","image-keyboard-response","143","901894","0.0-6.0-1.68","ANBL","3","f","rechts","21","","","self","f","90","true"
"null","<div style=""font-size:60px;"">+</div>","null","html-keyboard-response","144","902295","0.0-6.0-0.69","ANBL","3","f","rechts","21","","fixation","","","",""
"829","img/120_180.png","74","image-keyboard-response","145","903125","0.0-6.0-1.69","ANBL","3","f","rechts","21","","","self","j","120","true"
"null","<div style=""font-size:60px;"">+</div>","null","html-keyboard-response","146","903426","0.0-6.0-0.70","ANBL","3","f","rechts","21","","fixation","","","",""
"722","img/0_210.png","70","image-keyboard-response","147","904149","0.0-6.0-1.70","ANBL","3","f","rechts","21","","","self","f","0","true"
"null","<div style=""font-size:60px;"">+</div>","null","html-keyboard-response","148","904601","0.0-6.0-0.71","ANBL","3","f","rechts","21","","fixation","","","",""
"922","img/120_270.png","74","image-keyboard-response","149","905523","0.0-6.0-1.71","ANBL","3","f","rechts","21","","","self","j","120","true"
"null","<div style=""font-size:60px;"">+</div>","null","html-keyboard-response","150","906025","0.0-6.0-0.72","ANBL","3","f","rechts","21","","fixation","","","",""
"1072","img/90_60.png","74","image-keyboard-response","151","907098","0.0-6.0-1.72","ANBL","3","f","rechts","21","","","self","j","90","true"
"null","<div style=""font-size:60px;"">+</div>","null","html-keyboard-response","152","907450","0.0-6.0-0.73","ANBL","3","f","rechts","21","","fixation","","","",""
"1065","img/90_150.png","70","image-keyboard-response","153","908515","0.0-6.0-1.73","ANBL","3","f","rechts","21","","","self","f","90","true"
"null","<div style=""font-size:60px;"">+</div>","null","html-keyboard-response","154","908917","0.0-6.0-0.74","ANBL","3","f","rechts","21","","fixation","","","",""
"614","img/0_330.png","70","image-keyboard-response","155","909532","0.0-6.0-1.74","ANBL","3","f","rechts","21","","","self","f","0","true"
"null","<div style=""font-size:60px;"">+</div>","null","html-keyboard-response","156","909884","0.0-6.0-0.75","ANBL","3","f","rechts","21","","fixation","","","",""
"917","img/30_120.png","74","image-keyboard-response","157","910801","0.0-6.0-1.75","ANBL","3","f","rechts","21","","","self","j","30","true"
"null","<div style=""font-size:60px;"">+</div>","null","html-keyboard-response","158","911103","0.0-6.0-0.76","ANBL","3","f","rechts","21","","fixation","","","",""
"882","img/L120_180.png","70","image-keyboard-response","159","911985","0.0-6.0-1.76","ANBL","3","f","rechts","21","","","self","f","120","true"
"null","<div style=""font-size:60px;"">+</div>","null","html-keyboard-response","160","912387","0.0-6.0-0.77","ANBL","3","f","rechts","21","","fixation","","","",""
"913","img/30_90.png","74","image-keyboard-response","161","913300","0.0-6.0-1.77","ANBL","3","f","rechts","21","","","self","j","30","true"
"null","<div style=""font-size:60px;"">+</div>","null","html-keyboard-response","162","913752","0.0-6.0-0.78","ANBL","3","f","rechts","21","","fixation","","","",""
"711","img/0_90.png","74","image-keyboard-response","163","914464","0.0-6.0-1.78","ANBL","3","f","rechts","21","","","self","j","0","true"
"null","<div style=""font-size:60px;"">+</div>","null","html-keyboard-response","164","914866","0.0-6.0-0.79","ANBL","3","f","rechts","21","","fixation","","","",""
"682","img/150_90.png","70","image-keyboard-response","165","915548","0.0-6.0-1.79","ANBL","3","f","rechts","21","","","self","f","150","true"
"null","<div style=""font-size:60px;"">+</div>","null","html-keyboard-response","166","915850","0.0-6.0-0.80","ANBL","3","f","rechts","21","","fixation","","","",""
"891","img/90_210.png","74","image-keyboard-response","167","916741","0.0-6.0-1.80","ANBL","3","f","rechts","21","","","self","j","90","true"
"null","<div style=""font-size:60px;"">+</div>","null","html-keyboard-response","168","917042","0.0-6.0-0.81","ANBL","3","f","rechts","21","","fixation","","","",""
"873","img/120_30.png","74","image-keyboard-response","169","917916","0.0-6.0-1.81","ANBL","3","f","rechts","21","","","self","j","120","true"
"null","<div style=""font-size:60px;"">+</div>","null","html-keyboard-response","170","918318","0.0-6.0-0.82","ANBL","3","f","rechts","21","","fixation","","","",""
"778","img/0_150.png","74","image-keyboard-response","171","919096","0.0-6.0-1.82","ANBL","3","f","rechts","21","","","self","j","0","true"
"null","<div style=""font-size:60px;"">+</div>","null","html-keyboard-response","172","919598","0.0-6.0-0.83","ANBL","3","f","rechts","21","","fixation","","","",""
"848","img/30_270.png","70","image-keyboard-response","173","920446","0.0-6.0-1.83","ANBL","3","f","rechts","21","","","self","f","30","true"
"null","<div style=""font-size:60px;"">+</div>","null","html-keyboard-response","174","920897","0.0-6.0-0.84","ANBL","3","f","rechts","21","","fixation","","","",""
"887","img/30_180.png","74","image-keyboard-response","175","921785","0.0-6.0-1.84","ANBL","3","f","rechts","21","","","self","j","30","true"
"null","<div style=""font-size:60px;"">+</div>","null","html-keyboard-response","176","922187","0.0-6.0-0.85","ANBL","3","f","rechts","21","","fixation","","","",""
"1303","img/150_300.png","74","image-keyboard-response","177","923490","0.0-6.0-1.85","ANBL","3","f","rechts","21","","","self","j","150","true"
"null","<div style=""font-size:60px;"">+</div>","null","html-keyboard-response","178","923841","0.0-6.0-0.86","ANBL","3","f","rechts","21","","fixation","","","",""
"1048","img/30_300.png","70","image-keyboard-response","179","924890","0.0-6.0-1.86","ANBL","3","f","rechts","21","","","self","f","30","true"
"null","<div style=""font-size:60px;"">+</div>","null","html-keyboard-response","180","925392","0.0-6.0-0.87","ANBL","3","f","rechts","21","","fixation","","","",""
"810","img/150_180.png","74","image-keyboard-response","181","926202","0.0-6.0-1.87","ANBL","3","f","rechts","21","","","self","j","150","true"
"null","<div style=""font-size:60px;"">+</div>","null","html-keyboard-response","182","926504","0.0-6.0-0.88","ANBL","3","f","rechts","21","","fixation","","","",""
"846","img/60_270.png","70","image-keyboard-response","183","927350","0.0-6.0-1.88","ANBL","3","f","rechts","21","","","self","f","60","true"
"null","<div style=""font-size:60px;"">+</div>","null","html-keyboard-response","184","927701","0.0-6.0-0.89","ANBL","3","f","rechts","21","","fixation","","","",""
"930","img/60_210.png","74","image-keyboard-response","185","928632","0.0-6.0-1.89","ANBL","3","f","rechts","21","","","self","j","60","true"
"null","<div style=""font-size:60px;"">+</div>","null","html-keyboard-response","186","929134","0.0-6.0-0.90","ANBL","3","f","rechts","21","","fixation","","","",""
"790","img/60_150.png","70","image-keyboard-response","187","929924","0.0-6.0-1.90","ANBL","3","f","rechts","21","","","self","f","60","true"
"null","<div style=""font-size:60px;"">+</div>","null","html-keyboard-response","188","930325","0.0-6.0-0.91","ANBL","3","f","rechts","21","","fixation","","","",""
"782","img/150_270.png","74","image-keyboard-response","189","931109","0.0-6.0-1.91","ANBL","3","f","rechts","21","","","self","j","150","true"
"null","<div style=""font-size:60px;"">+</div>","null","html-keyboard-response","190","931460","0.0-6.0-0.92","ANBL","3","f","rechts","21","","fixation","","","",""
"755","img/120_210.png","74","image-keyboard-response","191","932216","0.0-6.0-1.92","ANBL","3","f","rechts","21","","","self","j","120","true"
"null","<div style=""font-size:60px;"">+</div>","null","html-keyboard-response","192","932518","0.0-6.0-0.93","ANBL","3","f","rechts","21","","fixation","","","",""
"986","img/90_300.png","70","image-keyboard-response","193","933505","0.0-6.0-1.93","ANBL","3","f","rechts","21","","","self","f","90","true"
"null","<div style=""font-size:60px;"">+</div>","null","html-keyboard-response","194","933905","0.0-6.0-0.94","ANBL","3","f","rechts","21","","fixation","","","",""
"1105","img/120_90.png","70","image-keyboard-response","195","935012","0.0-6.0-1.94","ANBL","3","f","rechts","21","","","self","f","120","true"
"null","<div style=""font-size:60px;"">+</div>","null","html-keyboard-response","196","935313","0.0-6.0-0.95","ANBL","3","f","rechts","21","","fixation","","","",""
"765","img/150_240.png","74","image-keyboard-response","197","936079","0.0-6.0-1.95","ANBL","3","f","rechts","21","","","self","j","150","true"
"null","<div style=""font-size:60px;"">+</div>","null","html-keyboard-response","198","936530","0.0-6.0-0.96","ANBL","3","f","rechts","21","","fixation","","","",""
"1108","img/90_120.png","70","image-keyboard-response","199","937640","0.0-6.0-1.96","ANBL","3","f","rechts","21","","","self","f","90","true"
"null","<div style=""font-size:60px;"">+</div>","null","html-keyboard-response","200","938041","0.0-6.0-0.97","ANBL","3","f","rechts","21","","fixation","","","",""
"1079","img/90_30.png","74","image-keyboard-response","201","939120","0.0-6.0-1.97","ANBL","3","f","rechts","21","","","self","j","90","true"
"null","<div style=""font-size:60px;"">+</div>","null","html-keyboard-response","202","939522","0.0-6.0-0.98","ANBL","3","f","rechts","21","","fixation","","","",""
"751","img/0_30.png","74","image-keyboard-response","203","940274","0.0-6.0-1.98","ANBL","3","f","rechts","21","","","self","j","0","true"
"null","<div style=""font-size:60px;"">+</div>","null","html-keyboard-response","204","940625","0.0-6.0-0.99","ANBL","3","f","rechts","21","","fixation","","","",""
"956","img/90_180.png","74","image-keyboard-response","205","941583","0.0-6.0-1.99","ANBL","3","f","rechts","21","","","self","j","90","true"
"null","<div style=""font-size:60px;"">+</div>","null","html-keyboard-response","206","941934","0.0-6.0-0.100","ANBL","3","f","rechts","21","","fixation","","","",""
"744","img/0_270.png","70","image-keyboard-response","207","942679","0.0-6.0-1.100","ANBL","3","f","rechts","21","","","self","f","0","true"
"null","<div style=""font-size:60px;"">+</div>","null","html-keyboard-response","208","942981","0.0-6.0-0.101","ANBL","3","f","rechts","21","","fixation","","","",""
"1188","img/120_330.png","70","image-keyboard-response","209","944170","0.0-6.0-1.101","ANBL","3","f","rechts","21","","","self","f","120","true"
"null","<div style=""font-size:60px;"">+</div>","null","html-keyboard-response","210","944472","0.0-6.0-0.102","ANBL","3","f","rechts","21","","fixation","","","",""
"892","img/L150_180.png","70","image-keyboard-response","211","945366","0.0-6.0-1.102","ANBL","3","f","rechts","21","","","self","f","150","true"
"null","<div style=""font-size:60px;"">+</div>","null","html-keyboard-response","212","945817","0.0-6.0-0.103","ANBL","3","f","rechts","21","","fixation","","","",""
"1147","img/60_180.png","74","image-keyboard-response","213","946965","0.0-6.0-1.103","ANBL","3","f","rechts","21","","","self","j","60","true"
"null","<div style=""font-size:60px;"">+</div>","null","html-keyboard-response","214","947466","0.0-6.0-0.104","ANBL","3","f","rechts","21","","fixation","","","",""
"710","img/30_300.png","70","image-keyboard-response","215","948177","0.0-6.0-1.104","ANBL","3","f","rechts","21","","","self","f","30","true"
"null","<div style=""font-size:60px;"">+</div>","null","html-keyboard-response","216","948579","0.0-6.0-0.105","ANBL","3","f","rechts","21","","fixation","","","",""
"699","img/90_210.png","74","image-keyboard-response","217","949279","0.0-6.0-1.105","ANBL","3","f","rechts","21","","","self","j","90","true"
"null","<div style=""font-size:60px;"">+</div>","null","html-keyboard-response","218","949681","0.0-6.0-0.106","ANBL","3","f","rechts","21","","fixation","","","",""
"1209","img/150_60.png","70","image-keyboard-response","219","950890","0.0-6.0-1.106","ANBL","3","f","rechts","21","","","self","f","150","true"
"null","<div style=""font-size:60px;"">+</div>","null","html-keyboard-response","220","951292","0.0-6.0-0.107","ANBL","3","f","rechts","21","","fixation","","","",""
"925","img/60_180.png","74","image-keyboard-response","221","952217","0.0-6.0-1.107","ANBL","3","f","rechts","21","","","self","j","60","true"
"null","<div style=""font-size:60px;"">+</div>","null","html-keyboard-response","222","952569","0.0-6.0-0.108","ANBL","3","f","rechts","21","","fixation","","","",""
"745","img/60_150.png","70","image-keyboard-response","223","953315","0.0-6.0-1.108","ANBL","3","f","rechts","21","","","self","f","60","true"
"null","<div style=""font-size:60px;"">+</div>","null","html-keyboard-response","224","953817","0.0-6.0-0.109","ANBL","3","f","rechts","21","","fixation","","","",""
"806","img/60_270.png","70","image-keyboard-response","225","954624","0.0-6.0-1.109","ANBL","3","f","rechts","21","","","self","f","60","true"
"null","<div style=""font-size:60px;"">+</div>","null","html-keyboard-response","226","954976","0.0-6.0-0.110","ANBL","3","f","rechts","21","","fixation","","","",""
"940","img/120_330.png","70","image-keyboard-response","227","955917","0.0-6.0-1.110","ANBL","3","f","rechts","21","","","self","f","120","true"
"null","<div style=""font-size:60px;"">+</div>","null","html-keyboard-response","228","956219","0.0-6.0-0.111","ANBL","3","f","rechts","21","","fixation","","","",""
"849","img/120_150.png","70","image-keyboard-response","229","957069","0.0-6.0-1.111","ANBL","3","f","rechts","21","","","self","f","120","true"
"null","<div style=""font-size:60px;"">+</div>","null","html-keyboard-response","230","957421","0.0-6.0-0.112","ANBL","3","f","rechts","21","","fixation","","","",""
"833","img/L30_180.png","70","image-keyboard-response","231","958254","0.0-6.0-1.112","ANBL","3","f","rechts","21","","","self","f","30","true"
"null","<div style=""font-size:60px;"">+</div>","null","html-keyboard-response","232","958706","0.0-6.0-0.113","ANBL","3","f","rechts","21","","fixation","","","",""
"649","img/30_180.png","74","image-keyboard-response","233","959356","0.0-6.0-1.113","ANBL","3","f","rechts","21","","","self","j","30","true"
"null","<div style=""font-size:60px;"">+</div>","null","html-keyboard-response","234","959658","0.0-6.0-0.114","ANBL","3","f","rechts","21","","fixation","","","",""
"919","img/30_60.png","70","image-keyboard-response","235","960578","0.0-6.0-1.114","ANBL","3","f","rechts","21","","","self","j","30","false"
"null","<div style=""font-size:60px;"">+</div>","null","html-keyboard-response","236","960930","0.0-6.0-0.115","ANBL","3","f","rechts","21","","fixation","","","",""
"1078","img/120_180.png","74","image-keyboard-response","237","962008","0.0-6.0-1.115","ANBL","3","f","rechts","21","","","self","j","120","true"
"null","<div style=""font-size:60px;"">+</div>","null","html-keyboard-response","238","962510","0.0-6.0-0.116","ANBL","3","f","rechts","21","","fixation","","","",""
"752","img/L90_180.png","70","image-keyboard-response","239","963262","0.0-6.0-1.116","ANBL","3","f","rechts","21","","","self","f","90","true"
"null","<div style=""font-size:60px;"">+</div>","null","html-keyboard-response","240","963564","0.0-6.0-0.117","ANBL","3","f","rechts","21","","fixation","","","",""
"861","img/0_300.png","70","image-keyboard-response","241","964425","0.0-6.0-1.117","ANBL","3","f","rechts","21","","","self","f","0","true"
"null","<div style=""font-size:60px;"">+</div>","null","html-keyboard-response","242","964926","0.0-6.0-0.118","ANBL","3","f","rechts","21","","fixation","","","",""
"811","img/150_240.png","74","image-keyboard-response","243","965738","0.0-6.0-1.118","ANBL","3","f","rechts","21","","","self","j","150","true"
"null","<div style=""font-size:60px;"">+</div>","null","html-keyboard-response","244","966190","0.0-6.0-0.119","ANBL","3","f","rechts","21","","fixation","","","",""
"739","img/0_150.png","74","image-keyboard-response","245","966929","0.0-6.0-1.119","ANBL","3","f","rechts","21","","","self","j","0","true"
"null","<div style=""font-size:60px;"">+</div>","null","html-keyboard-response","246","967430","0.0-6.0-0.120","ANBL","3","f","rechts","21","","fixation","","","",""
"764","img/60_330.png","70","image-keyboard-response","247","968195","0.0-6.0-1.120","ANBL","3","f","rechts","21","","","self","f","60","true"
"null","<div style=""font-size:60px;"">+</div>","null","html-keyboard-response","248","968496","0.0-6.0-0.121","ANBL","3","f","rechts","21","","fixation","","","",""
"1012","img/60_30.png","74","image-keyboard-response","249","969509","0.0-6.0-1.121","ANBL","3","f","rechts","21","","","self","j","60","true"
"null","<div style=""font-size:60px;"">+</div>","null","html-keyboard-response","250","969960","0.0-6.0-0.122","ANBL","3","f","rechts","21","","fixation","","","",""
"970","img/150_180.png","74","image-keyboard-response","251","970931","0.0-6.0-1.122","ANBL","3","f","rechts","21","","","self","j","150","true"
"null","<div style=""font-size:60px;"">+</div>","null","html-keyboard-response","252","971332","0.0-6.0-0.123","ANBL","3","f","rechts","21","","fixation","","","",""
"944","img/150_270.png","74","image-keyboard-response","253","972277","0.0-6.0-1.123","ANBL","3","f","rechts","21","","","self","j","150","true"
"null","<div style=""font-size:60px;"">+</div>","null","html-keyboard-response","254","972629","0.0-6.0-0.124","ANBL","3","f","rechts","21","","fixation","","","",""
"868","img/90_330.png","70","image-keyboard-response","255","973497","0.0-6.0-1.124","ANBL","3","f","rechts","21","","","self","f","90","true"
"null","<div style=""font-size:60px;"">+</div>","null","html-keyboard-response","256","973999","0.0-6.0-0.125","ANBL","3","f","rechts","21","","fixation","","","",""
"966","img/90_300.png","70","image-keyboard-response","257","974965","0.0-6.0-1.125","ANBL","3","f","rechts","21","","","self","f","90","true"
"null","<div style=""font-size:60px;"">+</div>","null","html-keyboard-response","258","975367","0.0-6.0-0.126","ANBL","3","f","rechts","21","","fixation","","","",""
"995","img/L120_180.png","70","image-keyboard-response","259","976362","0.0-6.0-1.126","ANBL","3","f","rechts","21","","","self","f","120","true"
"null","<div style=""font-size:60px;"">+</div>","null","html-keyboard-response","260","976712","0.0-6.0-0.127","ANBL","3","f","rechts","21","","fixation","","","",""
"1312","img/120_30.png","74","image-keyboard-response","261","978025","0.0-6.0-1.127","ANBL","3","f","rechts","21","","","self","j","120","true"
"null","<div style=""font-size:60px;"">+</div>","null","html-keyboard-response","262","978327","0.0-6.0-0.128","ANBL","3","f","rechts","21","","fixation","","","",""
"1076","img/120_210.png","74","image-keyboard-response","263","979403","0.0-6.0-1.128","ANBL","3","f","rechts","21","","","self","j","120","true"
"null","<div style=""font-size:60px;"">+</div>","null","html-keyboard-response","264","979855","0.0-6.0-0.129","ANBL","3","f","rechts","21","","fixation","","","",""
"969","img/60_210.png","74","image-keyboard-response","265","980825","0.0-6.0-1.129","ANBL","3","f","rechts","21","","","self","j","60","true"
"null","<div style=""font-size:60px;"">+</div>","null","html-keyboard-response","266","981176","0.0-6.0-0.130","ANBL","3","f","rechts","21","","fixation","","","",""
"1066","img/30_240.png","70","image-keyboard-response","267","982243","0.0-6.0-1.130","ANBL","3","f","rechts","21","","","self","f","30","true"
"null","<div style=""font-size:60px;"">+</div>","null","html-keyboard-response","268","982595","0.0-6.0-0.131","ANBL","3","f","rechts","21","","fixation","","","",""
"1064","img/30_90.png","74","image-keyboard-response","269","983660","0.0-6.0-1.131","ANBL","3","f","rechts","21","","","self","j","30","true"
"null","<div style=""font-size:60px;"">+</div>","null","html-keyboard-response","270","984061","0.0-6.0-0.132","ANBL","3","f","rechts","21","","fixation","","","",""
"1448","img/150_300.png","74","image-keyboard-response","271","985510","0.0-6.0-1.132","ANBL","3","f","rechts","21","","","self","j","150","true"
"null","<div style=""font-size:60px;"">+</div>","null","html-keyboard-response","272","986011","0.0-6.0-0.133","ANBL","3","f","rechts","21","","fixation","","","",""
"644","img/0_30.png","74","image-keyboard-response","273","986657","0.0-6.0-1.133","ANBL","3","f","rechts","21","","","self","j","0","true"
"null","<div style=""font-size:60px;"">+</div>","null","html-keyboard-response","274","987008","0.0-6.0-0.134","ANBL","3","f","rechts","21","","fixation","","","",""
"1073","img/60_90.png","74","image-keyboard-response","275","988082","0.0-6.0-1.134","ANBL","3","f","rechts","21","","","self","j","60","true"
"null","<div style=""font-size:60px;"">+</div>","null","html-keyboard-response","276","988483","0.0-6.0-0.135","ANBL","3","f","rechts","21","","fixation","","","",""
"726","img/0_270.png","70","image-keyboard-response","277","989210","0.0-6.0-1.135","ANBL","3","f","rechts","21","","","self","f","0","true"
"null","<div style=""font-size:60px;"">+</div>","null","html-keyboard-response","278","989562","0.0-6.0-0.136","ANBL","3","f","rechts","21","","fixation","","","",""
"954","img/L150_180.png","70","image-keyboard-response","279","990518","0.0-6.0-1.136","ANBL","3","f","rechts","21","","","self","f","150","true"
"null","<div style=""font-size:60px;"">+</div>","null","html-keyboard-response","280","990919","0.0-6.0-0.137","ANBL","3","f","rechts","21","","fixation","","","",""
"969","img/90_120.png","70","image-keyboard-response","281","991889","0.0-6.0-1.137","ANBL","3","f","rechts","21","","","self","f","90","true"
"null","<div style=""font-size:60px;"">+</div>","null","html-keyboard-response","282","992191","0.0-6.0-0.138","ANBL","3","f","rechts","21","","fixation","","","",""
"1048","img/90_30.png","74","image-keyboard-response","283","993240","0.0-6.0-1.138","ANBL","3","f","rechts","21","","","self","j","90","true"
"null","<div style=""font-size:60px;"">+</div>","null","html-keyboard-response","284","993692","0.0-6.0-0.139","ANBL","3","f","rechts","21","","fixation","","","",""
"1064","img/150_90.png","70","image-keyboard-response","285","994757","0.0-6.0-1.139","ANBL","3","f","rechts","21","","","self","f","150","true"
"null","<div style=""font-size:60px;"">+</div>","null","html-keyboard-response","286","995158","0.0-6.0-0.140","ANBL","3","f","rechts","21","","fixation","","","",""
"914","img/120_90.png","70","image-keyboard-response","287","996073","0.0-6.0-1.140","ANBL","3","f","rechts","21","","","self","f","120","true"
"null","<div style=""font-size:60px;"">+</div>","null","html-keyboard-response","288","996425","0.0-6.0-0.141","ANBL","3","f","rechts","21","","fixation","","","",""
"993","img/90_150.png","70","image-keyboard-response","289","997418","0.0-6.0-1.141","ANBL","3","f","rechts","21","","","self","f","90","true"
"null","<div style=""font-size:60px;"">+</div>","null","html-keyboard-response","290","997770","0.0-6.0-0.142","ANBL","3","f","rechts","21","","fixation","","","",""
"809","img/0_60.png","74","image-keyboard-response","291","998580","0.0-6.0-1.142","ANBL","3","f","rechts","21","","","self","j","0","true"
"null","<div style=""font-size:60px;"">+</div>","null","html-keyboard-response","292","998931","0.0-6.0-0.143","ANBL","3","f","rechts","21","","fixation","","","",""
"1082","img/90_240.png","74","image-keyboard-response","293","1000014","0.0-6.0-1.143","ANBL","3","f","rechts","21","","","self","j","90","true"
"null","<div style=""font-size:60px;"">+</div>","null","html-keyboard-response","294","1000516","0.0-6.0-0.144","ANBL","3","f","rechts","21","","fixation","","","",""
"1118","img/120_270.png","74","image-keyboard-response","295","1001635","0.0-6.0-1.144","ANBL","3","f","rechts","21","","","self","j","120","true"
"null","<div style=""font-size:60px;"">+</div>","null","html-keyboard-response","296","1001987","0.0-6.0-0.145","ANBL","3","f","rechts","21","","fixation","","","",""
"1428","img/90_60.png","74","image-keyboard-response","297","1003416","0.0-6.0-1.145","ANBL","3","f","rechts","21","","","self","j","90","true"
"null","<div style=""font-size:60px;"">+</div>","null","html-keyboard-response","298","1003918","0.0-6.0-0.146","ANBL","3","f","rechts","21","","fixation","","","",""
"722","img/90_180.png","74","image-keyboard-response","299","1004641","0.0-6.0-1.146","ANBL","3","f","rechts","21","","","self","j","90","true"
"null","<div style=""font-size:60px;"">+</div>","null","html-keyboard-response","300","1004943","0.0-6.0-0.147","ANBL","3","f","rechts","21","","fixation","","","",""
"729","img/0_240.png","70","image-keyboard-response","301","1005673","0.0-6.0-1.147","ANBL","3","f","rechts","21","","","self","f","0","true"
"null","<div style=""font-size:60px;"">+</div>","null","html-keyboard-response","302","1006025","0.0-6.0-0.148","ANBL","3","f","rechts","21","","fixation","","","",""
"956","img/L60_180.png","70","image-keyboard-response","303","1006981","0.0-6.0-1.148","ANBL","3","f","rechts","21","","","self","f","60","true"
"null","<div style=""font-size:60px;"">+</div>","null","html-keyboard-response","304","1007483","0.0-6.0-0.149","ANBL","3","f","rechts","21","","fixation","","","",""
"944","img/30_120.png","74","image-keyboard-response","305","1008428","0.0-6.0-1.149","ANBL","3","f","rechts","21","","","self","j","30","true"
"null","<div style=""font-size:60px;"">+</div>","null","html-keyboard-response","306","1008880","0.0-6.0-0.150","ANBL","3","f","rechts","21","","fixation","","","",""
"663","img/0_330.png","70","image-keyboard-response","307","1009543","0.0-6.0-1.150","ANBL","3","f","rechts","21","","","self","f","0","true"
"null","<div style=""font-size:60px;"">+</div>","null","html-keyboard-response","308","1009895","0.0-6.0-0.151","ANBL","3","f","rechts","21","","fixation","","","",""
"673","img/0_120.png","74","image-keyboard-response","309","1010569","0.0-6.0-1.151","ANBL","3","f","rechts","21","","","self","j","0","true"
"null","<div style=""font-size:60px;"">+</div>","null","html-keyboard-response","310","1010921","0.0-6.0-0.152","ANBL","3","f","rechts","21","","fixation","","","",""
"723","img/0_210.png","70","image-keyboard-response","311","1011644","0.0-6.0-1.152","ANBL","3","f","rechts","21","","","self","f","0","true"
"null","<div style=""font-size:60px;"">+</div>","null","html-keyboard-response","312","1012096","0.0-6.0-0.153","ANBL","3","f","rechts","21","","fixation","","","",""
"901","img/30_270.png","70","image-keyboard-response","313","1012997","0.0-6.0-1.153","ANBL","3","f","rechts","21","","","self","f","30","true"
"null","<div style=""font-size:60px;"">+</div>","null","html-keyboard-response","314","1013499","0.0-6.0-0.154","ANBL","3","f","rechts","21","","fixation","","","",""
"668","img/0_90.png","74","image-keyboard-response","315","1014167","0.0-6.0-1.154","ANBL","3","f","rechts","21","","","self","j","0","true"
"null","<div style=""font-size:60px;"">+</div>","null","html-keyboard-response","316","1014669","0.0-6.0-0.155","ANBL","3","f","rechts","21","","fixation","","","",""
"713","img/150_120.png","70","image-keyboard-response","317","1015382","0.0-6.0-1.155","ANBL","3","f","rechts","21","","","self","f","150","true"
"null","<div style=""font-size:60px;"">+</div>","null","html-keyboard-response","318","1015784","0.0-6.0-0.156","ANBL","3","f","rechts","21","","fixation","","","",""
"918","img/120_90.png","70","image-keyboard-response","319","1016702","0.0-6.0-1.156","ANBL","3","f","rechts","21","","","self","f","120","true"
"null","<div style=""font-size:60px;"">+</div>","null","html-keyboard-response","320","1017054","0.0-6.0-0.157","ANBL","3","f","rechts","21","","fixation","","","",""
"1078","img/30_120.png","74","image-keyboard-response","321","1018132","0.0-6.0-1.157","ANBL","3","f","rechts","21","","","self","j","30","true"
"null","<div style=""font-size:60px;"">+</div>","null","html-keyboard-response","322","1018534","0.0-6.0-0.158","ANBL","3","f","rechts","21","","fixation","","","",""
"946","img/30_300.png","70","image-keyboard-response","323","1019481","0.0-6.0-1.158","ANBL","3","f","rechts","21","","","self","f","30","true"
"null","<div style=""font-size:60px;"">+</div>","null","html-keyboard-response","324","1019883","0.0-6.0-0.159","ANBL","3","f","rechts","21","","fixation","","","",""
"629","img/0_210.png","70","image-keyboard-response","325","1020513","0.0-6.0-1.159","ANBL","3","f","rechts","21","","","self","f","0","true"
"null","<div style=""font-size:60px;"">+</div>","null","html-keyboard-response","326","1020914","0.0-6.0-0.160","ANBL","3","f","rechts","21","","fixation","","","",""
"904","img/60_210.png","74","image-keyboard-response","327","1021819","0.0-6.0-1.160","ANBL","3","f","rechts","21","","","self","j","60","true"
"null","<div style=""font-size:60px;"">+</div>","null","html-keyboard-response","328","1022271","0.0-6.0-0.161","ANBL","3","f","rechts","21","","fixation","","","",""
"628","img/0_30.png","74","image-keyboard-response","329","1022900","0.0-6.0-1.161","ANBL","3","f","rechts","21","","","self","j","0","true"
"null","<div style=""font-size:60px;"">+</div>","null","html-keyboard-response","330","1023301","0.0-6.0-0.162","ANBL","3","f","rechts","21","","fixation","","","",""
"769","img/L30_180.png","70","image-keyboard-response","331","1024071","0.0-6.0-1.162","ANBL","3","f","rechts","21","","","self","f","30","true"
"null","<div style=""font-size:60px;"">+</div>","null","html-keyboard-response","332","1024423","0.0-6.0-0.163","ANBL","3","f","rechts","21","","fixation","","","",""
"834","img/0_240.png","70","image-keyboard-response","333","1025257","0.0-6.0-1.163","ANBL","3","f","rechts","21","","","self","f","0","true"
"null","<div style=""font-size:60px;"">+</div>","null","html-keyboard-response","334","1025758","0.0-6.0-0.164","ANBL","3","f","rechts","21","","fixation","","","",""
"799","img/120_150.png","70","image-keyboard-response","335","1026558","0.0-6.0-1.164","ANBL","3","f","rechts","21","","","self","f","120","true"
"null","<div style=""font-size:60px;"">+</div>","null","html-keyboard-response","336","1026910","0.0-6.0-0.165","ANBL","3","f","rechts","21","","fixation","","","",""
"664","img/150_180.png","74","image-keyboard-response","337","1027574","0.0-6.0-1.165","ANBL","3","f","rechts","21","","","self","j","150","true"
"null","<div style=""font-size:60px;"">+</div>","null","html-keyboard-response","338","1027875","0.0-6.0-0.166","ANBL","3","f","rechts","21","","fixation","","","",""
"770","img/60_180.png","74","image-keyboard-response","339","1028647","0.0-6.0-1.166","ANBL","3","f","rechts","21","","","self","j","60","true"
"null","<div style=""font-size:60px;"">+</div>","null","html-keyboard-response","340","1029148","0.0-6.0-0.167","ANBL","3","f","rechts","21","","fixation","","","",""
"851","img/60_30.png","74","image-keyboard-response","341","1030000","0.0-6.0-1.167","ANBL","3","f","rechts","21","","","self","j","60","true"
"null","<div style=""font-size:60px;"">+</div>","null","html-keyboard-response","342","1030351","0.0-6.0-0.168","ANBL","3","f","rechts","21","","fixation","","","",""
"901","img/0_330.png","70","image-keyboard-response","343","1031253","0.0-6.0-1.168","ANBL","3","f","rechts","21","","","self","f","0","true"
"null","<div style=""font-size:60px;"">+</div>","null","html-keyboard-response","344","1031604","0.0-6.0-0.169","ANBL","3","f","rechts","21","","fixation","","","",""
"1216","img/L120_180.png","70","image-keyboard-response","345","1032822","0.0-6.0-1.169","ANBL","3","f","rechts","21","","","self","f","120","true"
"null","<div style=""font-size:60px;"">+</div>","null","html-keyboard-response","346","1033274","0.0-6.0-0.170","ANBL","3","f","rechts","21","","fixation","","","",""
"1237","img/150_90.png","70","image-keyboard-response","347","1034512","0.0-6.0-1.170","ANBL","3","f","rechts","21","","","self","f","150","true"
"null","<div style=""font-size:60px;"">+</div>","null","html-keyboard-response","348","1034963","0.0-6.0-0.171","ANBL","3","f","rechts","21","","fixation","","","",""
"981","img/L150_180.png","70","image-keyboard-response","349","1035946","0.0-6.0-1.171","ANBL","3","f","rechts","21","","","self","f","150","true"
"null","<div style=""font-size:60px;"">+</div>","null","html-keyboard-response","350","1036447","0.0-6.0-0.172","ANBL","3","f","rechts","21","","fixation","","","",""
"1027","img/150_240.png","74","image-keyboard-response","351","1037475","0.0-6.0-1.172","ANBL","3","f","rechts","21","","","self","j","150","true"
"null","<div style=""font-size:60px;"">+</div>","null","html-keyboard-response","352","1037927","0.0-6.0-0.173","ANBL","3","f","rechts","21","","fixation","","","",""
"1124","img/90_330.png","70","image-keyboard-response","353","1039052","0.0-6.0-1.173","ANBL","3","f","rechts","21","","","self","f","90","true"
"null","<div style=""font-size:60px;"">+</div>","null","html-keyboard-response","354","1039554","0.0-6.0-0.174","ANBL","3","f","rechts","21","","fixation","","","",""
"964","img/0_270.png","70","image-keyboard-response","355","1040520","0.0-6.0-1.174","ANBL","3","f","rechts","21","","","self","f","0","true"
"null","<div style=""font-size:60px;"">+</div>","null","html-keyboard-response","356","1040971","0.0-6.0-0.175","ANBL","3","f","rechts","21","","fixation","","","",""
"1197","img/150_60.png","70","image-keyboard-response","357","1042169","0.0-6.0-1.175","ANBL","3","f","rechts","21","","","self","f","150","true"
"null","<div style=""font-size:60px;"">+</div>","null","html-keyboard-response","358","1042520","0.0-6.0-0.176","ANBL","3","f","rechts","21","","fixation","","","",""
"596","img/0_150.png","74","image-keyboard-response","359","1043116","0.0-6.0-1.176","ANBL","3","f","rechts","21","","","self","j","0","true"
"null","<div style=""font-size:60px;"">+</div>","null","html-keyboard-response","360","1043568","0.0-6.0-0.177","ANBL","3","f","rechts","21","","fixation","","","",""
"667","img/90_120.png","70","image-keyboard-response","361","1044236","0.0-6.0-1.177","ANBL","3","f","rechts","21","","","self","f","90","true"
"null","<div style=""font-size:60px;"">+</div>","null","html-keyboard-response","362","1044688","0.0-6.0-0.178","ANBL","3","f","rechts","21","","fixation","","","",""
"712","img/0_120.png","74","image-keyboard-response","363","1045401","0.0-6.0-1.178","ANBL","3","f","rechts","21","","","self","j","0","true"
"null","<div style=""font-size:60px;"">+</div>","null","html-keyboard-response","364","1045703","0.0-6.0-0.179","ANBL","3","f","rechts","21","","fixation","","","",""
"822","img/120_270.png","74","image-keyboard-response","365","1046526","0.0-6.0-1.179","ANBL","3","f","rechts","21","","","self","j","120","true"
"null","<div style=""font-size:60px;"">+</div>","null","html-keyboard-response","366","1046928","0.0-6.0-0.180","ANBL","3","f","rechts","21","","fixation","","","",""
"844","img/90_30.png","74","image-keyboard-response","367","1047773","0.0-6.0-1.180","ANBL","3","f","rechts","21","","","self","j","90","true"
"null","<div style=""font-size:60px;"">+</div>","null","html-keyboard-response","368","1048075","0.0-6.0-0.181","ANBL","3","f","rechts","21","","fixation","","","",""
"979","img/150_120.png","70","image-keyboard-response","369","1049055","0.0-6.0-1.181","ANBL","3","f","rechts","21","","","self","f","150","true"
"null","<div style=""font-size:60px;"">+</div>","null","html-keyboard-response","370","1049406","0.0-6.0-0.182","ANBL","3","f","rechts","21","","fixation","","","",""
"1225","img/60_150.png","70","image-keyboard-response","371","1050632","0.0-6.0-1.182","ANBL","3","f","rechts","21","","","self","f","60","true"
"null","<div style=""font-size:60px;"">+</div>","null","html-keyboard-response","372","1050934","0.0-6.0-0.183","ANBL","3","f","rechts","21","","fixation","","","",""
"838","img/L90_180.png","70","image-keyboard-response","373","1051773","0.0-6.0-1.183","ANBL","3","f","rechts","21","","","self","f","90","true"
"null","<div style=""font-size:60px;"">+</div>","null","html-keyboard-response","374","1052225","0.0-6.0-0.184","ANBL","3","f","rechts","21","","fixation","","","",""
"1127","img/90_300.png","70","image-keyboard-response","375","1053353","0.0-6.0-1.184","ANBL","3","f","rechts","21","","","self","f","90","true"
"null","<div style=""font-size:60px;"">+</div>","null","html-keyboard-response","376","1053655","0.0-6.0-0.185","ANBL","3","f","rechts","21","","fixation","","","",""
"1298","img/30_60.png","74","image-keyboard-response","377","1054954","0.0-6.0-1.185","ANBL","3","f","rechts","21","","","self","j","30","true"
"null","<div style=""font-size:60px;"">+</div>","null","html-keyboard-response","378","1055306","0.0-6.0-0.186","ANBL","3","f","rechts","21","","fixation","","","",""
"727","img/0_60.png","74","image-keyboard-response","379","1056033","0.0-6.0-1.186","ANBL","3","f","rechts","21","","","self","j","0","true"
"null","<div style=""font-size:60px;"">+</div>","null","html-keyboard-response","380","1056335","0.0-6.0-0.187","ANBL","3","f","rechts","21","","fixation","","","",""
"990","img/30_90.png","74","image-keyboard-response","381","1057326","0.0-6.0-1.187","ANBL","3","f","rechts","21","","","self","j","30","true"
"null","<div style=""font-size:60px;"">+</div>","null","html-keyboard-response","382","1057678","0.0-6.0-0.188","ANBL","3","f","rechts","21","","fixation","","","",""
"958","img/90_240.png","74","image-keyboard-response","383","1058637","0.0-6.0-1.188","ANBL","3","f","rechts","21","","","self","j","90","true"
"null","<div style=""font-size:60px;"">+</div>","null","html-keyboard-response","384","1058939","0.0-6.0-0.189","ANBL","3","f","rechts","21","","fixation","","","",""
"810","img/0_90.png","74","image-keyboard-response","385","1059749","0.0-6.0-1.189","ANBL","3","f","rechts","21","","","self","j","0","true"
"null","<div style=""font-size:60px;"">+</div>","null","html-keyboard-response","386","1060101","0.0-6.0-0.190","ANBL","3","f","rechts","21","","fixation","","","",""
"637","img/L60_180.png","70","image-keyboard-response","387","1060738","0.0-6.0-1.190","ANBL","3","f","rechts","21","","","self","f","60","true"
"null","<div style=""font-size:60px;"">+</div>","null","html-keyboard-response","388","1061190","0.0-6.0-0.191","ANBL","3","f","rechts","21","","fixation","","","",""
"748","img/120_180.png","74","image-keyboard-response","389","1061938","0.0-6.0-1.191","ANBL","3","f","rechts","21","","","self","j","120","true"
"null","<div style=""font-size:60px;"">+</div>","null","html-keyboard-response","390","1062390","0.0-6.0-0.192","ANBL","3","f","rechts","21","","fixation","","","",""
"811","img/60_330.png","70","image-keyboard-response","391","1063202","0.0-6.0-1.192","ANBL","3","f","rechts","21","","","self","f","60","true"
"null","<div style=""font-size:60px;"">+</div>","null","html-keyboard-response","392","1063604","0.0-6.0-0.193","ANBL","3","f","rechts","21","","fixation","","","",""
"1476","img/150_300.png","74","image-keyboard-response","393","1065080","0.0-6.0-1.193","ANBL","3","f","rechts","21","","","self","j","150","true"
"null","<div style=""font-size:60px;"">+</div>","null","html-keyboard-response","394","1065532","0.0-6.0-0.194","ANBL","3","f","rechts","21","","fixation","","","",""
"1813","img/90_60.png","74","image-keyboard-response","395","1067345","0.0-6.0-1.194","ANBL","3","f","rechts","21","","","self","j","90","true"
"null","<div style=""font-size:60px;"">+</div>","null","html-keyboard-response","396","1067847","0.0-6.0-0.195","ANBL","3","f","rechts","21","","fixation","","","",""
"1066","img/30_180.png","74","image-keyboard-response","397","1068913","0.0-6.0-1.195","ANBL","3","f","rechts","21","","","self","j","30","true"
"null","<div style=""font-size:60px;"">+</div>","null","html-keyboard-response","398","1069364","0.0-6.0-0.196","ANBL","3","f","rechts","21","","fixation","","","",""
"869","img/30_240.png","70","image-keyboard-response","399","1070234","0.0-6.0-1.196","ANBL","3","f","rechts","21","","","self","f","30","true"
"null","<div style=""font-size:60px;"">+</div>","null","html-keyboard-response","400","1070536","0.0-6.0-0.197","ANBL","3","f","rechts","21","","fixation","","","",""
"1092","img/0_300.png","70","image-keyboard-response","401","1071628","0.0-6.0-1.197","ANBL","3","f","rechts","21","","","self","f","0","true"
"null","<div style=""font-size:60px;"">+</div>","null","html-keyboard-response","402","1072080","0.0-6.0-0.198","ANBL","3","f","rechts","21","","fixation","","","",""
"786","img/120_330.png","74","image-keyboard-response","403","1072867","0.0-6.0-1.198","ANBL","3","f","rechts","21","","","self","f","120","false"
"null","<div style=""font-size:60px;"">+</div>","null","html-keyboard-response","404","1073368","0.0-6.0-0.199","ANBL","3","f","rechts","21","","fixation","","","",""
"923","img/90_180.png","74","image-keyboard-response","405","1074291","0.0-6.0-1.199","ANBL","3","f","rechts","21","","","self","j","90","true"
"null","<div style=""font-size:60px;"">+</div>","null","html-keyboard-response","406","1074743","0.0-6.0-0.200","ANBL","3","f","rechts","21","","fixation","","","",""
"1310","img/120_30.png","74","image-keyboard-response","407","1076055","0.0-6.0-1.200","ANBL","3","f","rechts","21","","","self","j","120","true"
"null","<div style=""font-size:60px;"">+</div>","null","html-keyboard-response","408","1076556","0.0-6.0-0.201","ANBL","3","f","rechts","21","","fixation","","","",""
"781","img/120_210.png","74","image-keyboard-response","409","1077338","0.0-6.0-1.201","ANBL","3","f","rechts","21","","","self","j","120","true"
"null","<div style=""font-size:60px;"">+</div>","null","html-keyboard-response","410","1077639","0.0-6.0-0.202","ANBL","3","f","rechts","21","","fixation","","","",""
"934","img/90_210.png","74","image-keyboard-response","411","1078574","0.0-6.0-1.202","ANBL","3","f","rechts","21","","","self","j","90","true"
"null","<div style=""font-size:60px;"">+</div>","null","html-keyboard-response","412","1078925","0.0-6.0-0.203","ANBL","3","f","rechts","21","","fixation","","","",""
"955","img/30_270.png","70","image-keyboard-response","413","1079882","0.0-6.0-1.203","ANBL","3","f","rechts","21","","","self","f","30","true"
"null","<div style=""font-size:60px;"">+</div>","null","html-keyboard-response","414","1080383","0.0-6.0-0.204","ANBL","3","f","rechts","21","","fixation","","","",""
"907","img/60_270.png","70","image-keyboard-response","415","1081292","0.0-6.0-1.204","ANBL","3","f","rechts","21","","","self","f","60","true"
"null","<div style=""font-size:60px;"">+</div>","null","html-keyboard-response","416","1081743","0.0-6.0-0.205","ANBL","3","f","rechts","21","","fixation","","","",""
"1005","img/150_270.png","74","image-keyboard-response","417","1082749","0.0-6.0-1.205","ANBL","3","f","rechts","21","","","self","j","150","true"
"null","<div style=""font-size:60px;"">+</div>","null","html-keyboard-response","418","1083250","0.0-6.0-0.206","ANBL","3","f","rechts","21","","fixation","","","",""
"1077","img/60_90.png","74","image-keyboard-response","419","1084328","0.0-6.0-1.206","ANBL","3","f","rechts","21","","","self","j","60","true"
"null","<div style=""font-size:60px;"">+</div>","null","html-keyboard-response","420","1084830","0.0-6.0-0.207","ANBL","3","f","rechts","21","","fixation","","","",""
"885","img/90_150.png","70","image-keyboard-response","421","1085717","0.0-6.0-1.207","ANBL","3","f","rechts","21","","","self","f","90","true"
"13015","<p>Du hast in 95% der Versuche korrekt entschieden.</p><p>Deine durchschnittliche Reaktionszeit war  929ms.</p><p>Dr&uuml;cke eine beliebige Taste, um die Session zu beenden. Vielen Dank!</p>","74","html-keyboard-response","422","1098732","0.0-7.0","ANBL","3","f","rechts","21","","","","","",""
