"rt","stimulus","key_press","trial_type","trial_index","time_elapsed","internal_node_id","subject","session","sex","handedness","age","responses","test_part","condition","correct_response","angle","correct"
"1294","<p>Mental Rotation Experiment.</p> <p>Dr&uuml;cke eine beliebige Taste, um anzufangen.</p>","71","html-keyboard-response","0","1298","0.0-0.0","ANBL","2","f","rechts","21","","","","","",""
"5692","","","survey-text","1","6991","0.0-1.0","ANBL","2","f","rechts","21","{""Q0"":""ANBL""}","","","","",""
"2347","","","survey-text","2","9339","0.0-2.0","ANBL","2","f","rechts","21","{""Q0"":""2""}","","","","",""
"4205","","","survey-multi-choice","3","13549","0.0-3.0","ANBL","2","f","rechts","21","{""Q0"":""f"",""Q1"":""rechts""}","","","","",""
"2468","","","survey-text","4","16017","0.0-4.0","ANBL","2","f","rechts","21","{""Q0"":""21""}","","","","",""
"359262","<p> Stell dir vor, dass du vor einem runden Tisch stehst, auf dem sich ein blauer Ball am Tischrand befindet. Entlang des Tischrands ist jeweils ein verschieden langer Pfeil. Nun bewegst du dich entlang dieses Pfeils bis an seine Spitze. Wenn du am Ende des Pfeils angekommen bist, schau zur Tischmitte. </p> <img src='img/90_180.png'></img> <br> <p>Entscheide dann, ob der Ball von deiner neuen (vorgestellten) Position links oder rechts von dir liegt.</p> <p>Dr&uuml;cke die <strong>'f'</strong>-Taste f&uuml;r links, die <strong>'j'</strong>-Taste f&uuml;r rechts.</p> <br><p> Das Bild wird jeweils 1 Sekunde lang pr&auml;sentiert. Du hast 3 Sekunden Zeit eine Entscheidung zu treffen.</p>","74","html-keyboard-response","5","375280","0.0-5.0","ANBL","2","f","rechts","21","","","","","",""
"null","<div style=""font-size:60px;"">+</div>","null","html-keyboard-response","6","376634","0.0-6.0-0.0","ANBL","2","f","rechts","21","","fixation","","","",""
"1271","img/90_240.png","74","image-keyboard-response","7","377907","0.0-6.0-1.0","ANBL","2","f","rechts","21","","","self","j","90","true"
"null","<div style=""font-size:60px;"">+</div>","null","html-keyboard-response","8","378209","0.0-6.0-0.1","ANBL","2","f","rechts","21","","fixation","","","",""
"1375","img/60_30.png","74","image-keyboard-response","9","379585","0.0-6.0-1.1","ANBL","2","f","rechts","21","","","self","j","60","true"
"null","<div style=""font-size:60px;"">+</div>","null","html-keyboard-response","10","380087","0.0-6.0-0.2","ANBL","2","f","rechts","21","","fixation","","","",""
"1225","img/150_180.png","74","image-keyboard-response","11","381313","0.0-6.0-1.2","ANBL","2","f","rechts","21","","","self","j","150","true"
"null","<div style=""font-size:60px;"">+</div>","null","html-keyboard-response","12","381765","0.0-6.0-0.3","ANBL","2","f","rechts","21","","fixation","","","",""
"1175","img/90_150.png","70","image-keyboard-response","13","382941","0.0-6.0-1.3","ANBL","2","f","rechts","21","","","self","f","90","true"
"null","<div style=""font-size:60px;"">+</div>","null","html-keyboard-response","14","383342","0.0-6.0-0.4","ANBL","2","f","rechts","21","","fixation","","","",""
"1255","img/0_150.png","74","image-keyboard-response","15","384600","0.0-6.0-1.4","ANBL","2","f","rechts","21","","","self","j","0","true"
"null","<div style=""font-size:60px;"">+</div>","null","html-keyboard-response","16","385051","0.0-6.0-0.5","ANBL","2","f","rechts","21","","fixation","","","",""
"1090","img/90_210.png","74","image-keyboard-response","17","386142","0.0-6.0-1.5","ANBL","2","f","rechts","21","","","self","j","90","true"
"null","<div style=""font-size:60px;"">+</div>","null","html-keyboard-response","18","386643","0.0-6.0-0.6","ANBL","2","f","rechts","21","","fixation","","","",""
"910","img/120_150.png","70","image-keyboard-response","19","387555","0.0-6.0-1.6","ANBL","2","f","rechts","21","","","self","f","120","true"
"null","<div style=""font-size:60px;"">+</div>","null","html-keyboard-response","20","387906","0.0-6.0-0.7","ANBL","2","f","rechts","21","","fixation","","","",""
"897","img/L120_180.png","70","image-keyboard-response","21","388806","0.0-6.0-1.7","ANBL","2","f","rechts","21","","","self","f","120","true"
"null","<div style=""font-size:60px;"">+</div>","null","html-keyboard-response","22","389207","0.0-6.0-0.8","ANBL","2","f","rechts","21","","fixation","","","",""
"834","img/0_90.png","74","image-keyboard-response","23","390043","0.0-6.0-1.8","ANBL","2","f","rechts","21","","","self","j","0","true"
"null","<div style=""font-size:60px;"">+</div>","null","html-keyboard-response","24","390494","0.0-6.0-0.9","ANBL","2","f","rechts","21","","fixation","","","",""
"822","img/150_90.png","70","image-keyboard-response","25","391318","0.0-6.0-1.9","ANBL","2","f","rechts","21","","","self","f","150","true"
"null","<div style=""font-size:60px;"">+</div>","null","html-keyboard-response","26","391819","0.0-6.0-0.10","ANBL","2","f","rechts","21","","fixation","","","",""
"1159","img/120_90.png","70","image-keyboard-response","27","392979","0.0-6.0-1.10","ANBL","2","f","rechts","21","","","self","f","120","true"
"null","<div style=""font-size:60px;"">+</div>","null","html-keyboard-response","28","393481","0.0-6.0-0.11","ANBL","2","f","rechts","21","","fixation","","","",""
"1388","img/60_270.png","70","image-keyboard-response","29","394871","0.0-6.0-1.11","ANBL","2","f","rechts","21","","","self","f","60","true"
"null","<div style=""font-size:60px;"">+</div>","null","html-keyboard-response","30","395172","0.0-6.0-0.12","ANBL","2","f","rechts","21","","fixation","","","",""
"913","img/30_180.png","74","image-keyboard-response","31","396086","0.0-6.0-1.12","ANBL","2","f","rechts","21","","","self","j","30","true"
"null","<div style=""font-size:60px;"">+</div>","null","html-keyboard-response","32","396488","0.0-6.0-0.13","ANBL","2","f","rechts","21","","fixation","","","",""
"1343","img/90_330.png","70","image-keyboard-response","33","397832","0.0-6.0-1.13","ANBL","2","f","rechts","21","","","self","f","90","true"
"null","<div style=""font-size:60px;"">+</div>","null","html-keyboard-response","34","398334","0.0-6.0-0.14","ANBL","2","f","rechts","21","","fixation","","","",""
"1457","img/30_240.png","70","image-keyboard-response","35","399792","0.0-6.0-1.14","ANBL","2","f","rechts","21","","","self","f","30","true"
"null","<div style=""font-size:60px;"">+</div>","null","html-keyboard-response","36","400194","0.0-6.0-0.15","ANBL","2","f","rechts","21","","fixation","","","",""
"980","img/150_240.png","74","image-keyboard-response","37","401175","0.0-6.0-1.15","ANBL","2","f","rechts","21","","","self","j","150","true"
"null","<div style=""font-size:60px;"">+</div>","null","html-keyboard-response","38","401627","0.0-6.0-0.16","ANBL","2","f","rechts","21","","fixation","","","",""
"788","img/60_150.png","70","image-keyboard-response","39","402416","0.0-6.0-1.16","ANBL","2","f","rechts","21","","","self","f","60","true"
"null","<div style=""font-size:60px;"">+</div>","null","html-keyboard-response","40","402818","0.0-6.0-0.17","ANBL","2","f","rechts","21","","fixation","","","",""
"1111","img/90_30.png","74","image-keyboard-response","41","403930","0.0-6.0-1.17","ANBL","2","f","rechts","21","","","self","j","90","true"
"null","<div style=""font-size:60px;"">+</div>","null","html-keyboard-response","42","404382","0.0-6.0-0.18","ANBL","2","f","rechts","21","","fixation","","","",""
"969","img/120_30.png","74","image-keyboard-response","43","405352","0.0-6.0-1.18","ANBL","2","f","rechts","21","","","self","j","120","true"
"null","<div style=""font-size:60px;"">+</div>","null","html-keyboard-response","44","405704","0.0-6.0-0.19","ANBL","2","f","rechts","21","","fixation","","","",""
"810","img/0_270.png","70","image-keyboard-response","45","406516","0.0-6.0-1.19","ANBL","2","f","rechts","21","","","self","f","0","true"
"null","<div style=""font-size:60px;"">+</div>","null","html-keyboard-response","46","406868","0.0-6.0-0.20","ANBL","2","f","rechts","21","","fixation","","","",""
"958","img/L60_180.png","70","image-keyboard-response","47","407827","0.0-6.0-1.20","ANBL","2","f","rechts","21","","","self","f","60","true"
"null","<div style=""font-size:60px;"">+</div>","null","html-keyboard-response","48","408229","0.0-6.0-0.21","ANBL","2","f","rechts","21","","fixation","","","",""
"1103","img/30_60.png","74","image-keyboard-response","49","409333","0.0-6.0-1.21","ANBL","2","f","rechts","21","","","self","j","30","true"
"null","<div style=""font-size:60px;"">+</div>","null","html-keyboard-response","50","409835","0.0-6.0-0.22","ANBL","2","f","rechts","21","","fixation","","","",""
"1048","img/90_180.png","74","image-keyboard-response","51","410884","0.0-6.0-1.22","ANBL","2","f","rechts","21","","","self","j","90","true"
"null","<div style=""font-size:60px;"">+</div>","null","html-keyboard-response","52","411186","0.0-6.0-0.23","ANBL","2","f","rechts","21","","fixation","","","",""
"1014","img/60_330.png","70","image-keyboard-response","53","412201","0.0-6.0-1.23","ANBL","2","f","rechts","21","","","self","f","60","true"
"null","<div style=""font-size:60px;"">+</div>","null","html-keyboard-response","54","412553","0.0-6.0-0.24","ANBL","2","f","rechts","21","","fixation","","","",""
"1876","img/120_270.png","74","image-keyboard-response","55","414430","0.0-6.0-1.24","ANBL","2","f","rechts","21","","","self","j","120","true"
"null","<div style=""font-size:60px;"">+</div>","null","html-keyboard-response","56","414782","0.0-6.0-0.25","ANBL","2","f","rechts","21","","fixation","","","",""
"1095","img/150_270.png","74","image-keyboard-response","57","415878","0.0-6.0-1.25","ANBL","2","f","rechts","21","","","self","j","150","true"
"null","<div style=""font-size:60px;"">+</div>","null","html-keyboard-response","58","416380","0.0-6.0-0.26","ANBL","2","f","rechts","21","","fixation","","","",""
"1082","img/150_120.png","70","image-keyboard-response","59","417463","0.0-6.0-1.26","ANBL","2","f","rechts","21","","","self","f","150","true"
"null","<div style=""font-size:60px;"">+</div>","null","html-keyboard-response","60","417815","0.0-6.0-0.27","ANBL","2","f","rechts","21","","fixation","","","",""
"1003","img/0_240.png","70","image-keyboard-response","61","418819","0.0-6.0-1.27","ANBL","2","f","rechts","21","","","self","f","0","true"
"null","<div style=""font-size:60px;"">+</div>","null","html-keyboard-response","62","419271","0.0-6.0-0.28","ANBL","2","f","rechts","21","","fixation","","","",""
"1230","img/60_90.png","74","image-keyboard-response","63","420502","0.0-6.0-1.28","ANBL","2","f","rechts","21","","","self","j","60","true"
"null","<div style=""font-size:60px;"">+</div>","null","html-keyboard-response","64","420954","0.0-6.0-0.29","ANBL","2","f","rechts","21","","fixation","","","",""
"847","img/30_300.png","70","image-keyboard-response","65","421802","0.0-6.0-1.29","ANBL","2","f","rechts","21","","","self","f","30","true"
"null","<div style=""font-size:60px;"">+</div>","null","html-keyboard-response","66","422154","0.0-6.0-0.30","ANBL","2","f","rechts","21","","fixation","","","",""
"1100","img/L150_180.png","70","image-keyboard-response","67","423255","0.0-6.0-1.30","ANBL","2","f","rechts","21","","","self","f","150","true"
"null","<div style=""font-size:60px;"">+</div>","null","html-keyboard-response","68","423557","0.0-6.0-0.31","ANBL","2","f","rechts","21","","fixation","","","",""
"1095","img/30_90.png","74","image-keyboard-response","69","424653","0.0-6.0-1.31","ANBL","2","f","rechts","21","","","self","j","30","true"
"null","<div style=""font-size:60px;"">+</div>","null","html-keyboard-response","70","425005","0.0-6.0-0.32","ANBL","2","f","rechts","21","","fixation","","","",""
"1592","img/90_300.png","70","image-keyboard-response","71","426598","0.0-6.0-1.32","ANBL","2","f","rechts","21","","","self","f","90","true"
"null","<div style=""font-size:60px;"">+</div>","null","html-keyboard-response","72","427100","0.0-6.0-0.33","ANBL","2","f","rechts","21","","fixation","","","",""
"971","img/60_180.png","74","image-keyboard-response","73","428072","0.0-6.0-1.33","ANBL","2","f","rechts","21","","","self","j","60","true"
"null","<div style=""font-size:60px;"">+</div>","null","html-keyboard-response","74","428474","0.0-6.0-0.34","ANBL","2","f","rechts","21","","fixation","","","",""
"1276","img/0_60.png","74","image-keyboard-response","75","429751","0.0-6.0-1.34","ANBL","2","f","rechts","21","","","self","j","0","true"
"null","<div style=""font-size:60px;"">+</div>","null","html-keyboard-response","76","430203","0.0-6.0-0.35","ANBL","2","f","rechts","21","","fixation","","","",""
"892","img/120_210.png","74","image-keyboard-response","77","431097","0.0-6.0-1.35","ANBL","2","f","rechts","21","","","self","j","120","true"
"null","<div style=""font-size:60px;"">+</div>","null","html-keyboard-response","78","431498","0.0-6.0-0.36","ANBL","2","f","rechts","21","","fixation","","","",""
"1051","img/30_270.png","70","image-keyboard-response","79","432550","0.0-6.0-1.36","ANBL","2","f","rechts","21","","","self","f","30","true"
"null","<div style=""font-size:60px;"">+</div>","null","html-keyboard-response","80","433002","0.0-6.0-0.37","ANBL","2","f","rechts","21","","fixation","","","",""
"1068","img/150_300.png","74","image-keyboard-response","81","434071","0.0-6.0-1.37","ANBL","2","f","rechts","21","","","self","j","150","true"
"null","<div style=""font-size:60px;"">+</div>","null","html-keyboard-response","82","434373","0.0-6.0-0.38","ANBL","2","f","rechts","21","","fixation","","","",""
"1130","img/L90_180.png","70","image-keyboard-response","83","435505","0.0-6.0-1.38","ANBL","2","f","rechts","21","","","self","f","90","true"
"null","<div style=""font-size:60px;"">+</div>","null","html-keyboard-response","84","435806","0.0-6.0-0.39","ANBL","2","f","rechts","21","","fixation","","","",""
"1196","img/120_330.png","70","image-keyboard-response","85","437003","0.0-6.0-1.39","ANBL","2","f","rechts","21","","","self","f","120","true"
"null","<div style=""font-size:60px;"">+</div>","null","html-keyboard-response","86","437505","0.0-6.0-0.40","ANBL","2","f","rechts","21","","fixation","","","",""
"721","img/120_180.png","74","image-keyboard-response","87","438228","0.0-6.0-1.40","ANBL","2","f","rechts","21","","","self","j","120","true"
"null","<div style=""font-size:60px;"">+</div>","null","html-keyboard-response","88","438679","0.0-6.0-0.41","ANBL","2","f","rechts","21","","fixation","","","",""
"809","img/150_60.png","70","image-keyboard-response","89","439490","0.0-6.0-1.41","ANBL","2","f","rechts","21","","","self","f","150","true"
"null","<div style=""font-size:60px;"">+</div>","null","html-keyboard-response","90","439992","0.0-6.0-0.42","ANBL","2","f","rechts","21","","fixation","","","",""
"694","img/0_330.png","70","image-keyboard-response","91","440688","0.0-6.0-1.42","ANBL","2","f","rechts","21","","","self","f","0","true"
"null","<div style=""font-size:60px;"">+</div>","null","html-keyboard-response","92","441189","0.0-6.0-0.43","ANBL","2","f","rechts","21","","fixation","","","",""
"649","img/0_210.png","70","image-keyboard-response","93","441840","0.0-6.0-1.43","ANBL","2","f","rechts","21","","","self","f","0","true"
"null","<div style=""font-size:60px;"">+</div>","null","html-keyboard-response","94","442242","0.0-6.0-0.44","ANBL","2","f","rechts","21","","fixation","","","",""
"1253","img/90_60.png","74","image-keyboard-response","95","443497","0.0-6.0-1.44","ANBL","2","f","rechts","21","","","self","j","90","true"
"null","<div style=""font-size:60px;"">+</div>","null","html-keyboard-response","96","443898","0.0-6.0-0.45","ANBL","2","f","rechts","21","","fixation","","","",""
"622","img/0_300.png","70","image-keyboard-response","97","444522","0.0-6.0-1.45","ANBL","2","f","rechts","21","","","self","f","0","true"
"null","<div style=""font-size:60px;"">+</div>","null","html-keyboard-response","98","444923","0.0-6.0-0.46","ANBL","2","f","rechts","21","","fixation","","","",""
"647","img/0_30.png","74","image-keyboard-response","99","445572","0.0-6.0-1.46","ANBL","2","f","rechts","21","","","self","j","0","true"
"null","<div style=""font-size:60px;"">+</div>","null","html-keyboard-response","100","445974","0.0-6.0-0.47","ANBL","2","f","rechts","21","","fixation","","","",""
"697","img/L30_180.png","70","image-keyboard-response","101","446672","0.0-6.0-1.47","ANBL","2","f","rechts","21","","","self","f","30","true"
"null","<div style=""font-size:60px;"">+</div>","null","html-keyboard-response","102","447124","0.0-6.0-0.48","ANBL","2","f","rechts","21","","fixation","","","",""
"846","img/90_120.png","70","image-keyboard-response","103","447971","0.0-6.0-1.48","ANBL","2","f","rechts","21","","","self","f","90","true"
"null","<div style=""font-size:60px;"">+</div>","null","html-keyboard-response","104","448473","0.0-6.0-0.49","ANBL","2","f","rechts","21","","fixation","","","",""
"727","img/0_120.png","74","image-keyboard-response","105","449201","0.0-6.0-1.49","ANBL","2","f","rechts","21","","","self","j","0","true"
"null","<div style=""font-size:60px;"">+</div>","null","html-keyboard-response","106","449553","0.0-6.0-0.50","ANBL","2","f","rechts","21","","fixation","","","",""
"895","img/60_210.png","74","image-keyboard-response","107","450449","0.0-6.0-1.50","ANBL","2","f","rechts","21","","","self","j","60","true"
"null","<div style=""font-size:60px;"">+</div>","null","html-keyboard-response","108","450801","0.0-6.0-0.51","ANBL","2","f","rechts","21","","fixation","","","",""
"1603","img/30_120.png","74","image-keyboard-response","109","452405","0.0-6.0-1.51","ANBL","2","f","rechts","21","","","self","j","30","true"
"null","<div style=""font-size:60px;"">+</div>","null","html-keyboard-response","110","452757","0.0-6.0-0.52","ANBL","2","f","rechts","21","","fixation","","","",""
"606","img/0_300.png","70","image-keyboard-response","111","453364","0.0-6.0-1.52","ANBL","2","f","rechts","21","","","self","f","0","true"
"null","<div style=""font-size:60px;"">+</div>","null","html-keyboard-response","112","453816","0.0-6.0-0.53","ANBL","2","f","rechts","21","","fixation","","","",""
"868","img/0_90.png","74","image-keyboard-response","113","454685","0.0-6.0-1.53","ANBL","2","f","rechts","21","","","self","j","0","true"
"null","<div style=""font-size:60px;"">+</div>","null","html-keyboard-response","114","455136","0.0-6.0-0.54","ANBL","2","f","rechts","21","","fixation","","","",""
"1818","img/150_300.png","74","image-keyboard-response","115","456954","0.0-6.0-1.54","ANBL","2","f","rechts","21","","","self","j","150","true"
"null","<div style=""font-size:60px;"">+</div>","null","html-keyboard-response","116","457406","0.0-6.0-0.55","ANBL","2","f","rechts","21","","fixation","","","",""
"1228","img/30_240.png","70","image-keyboard-response","117","458635","0.0-6.0-1.55","ANBL","2","f","rechts","21","","","self","f","30","true"
"null","<div style=""font-size:60px;"">+</div>","null","html-keyboard-response","118","459037","0.0-6.0-0.56","ANBL","2","f","rechts","21","","fixation","","","",""
"1073","img/L60_180.png","70","image-keyboard-response","119","460111","0.0-6.0-1.56","ANBL","2","f","rechts","21","","","self","f","60","true"
"null","<div style=""font-size:60px;"">+</div>","null","html-keyboard-response","120","460613","0.0-6.0-0.57","ANBL","2","f","rechts","21","","fixation","","","",""
"1713","img/150_120.png","70","image-keyboard-response","121","462326","0.0-6.0-1.57","ANBL","2","f","rechts","21","","","self","f","150","true"
"null","<div style=""font-size:60px;"">+</div>","null","html-keyboard-response","122","462728","0.0-6.0-0.58","ANBL","2","f","rechts","21","","fixation","","","",""
"672","img/0_30.png","74","image-keyboard-response","123","463400","0.0-6.0-1.58","ANBL","2","f","rechts","21","","","self","j","0","true"
"null","<div style=""font-size:60px;"">+</div>","null","html-keyboard-response","124","463902","0.0-6.0-0.59","ANBL","2","f","rechts","21","","fixation","","","",""
"1078","img/0_60.png","74","image-keyboard-response","125","464980","0.0-6.0-1.59","ANBL","2","f","rechts","21","","","self","j","0","true"
"null","<div style=""font-size:60px;"">+</div>","null","html-keyboard-response","126","465282","0.0-6.0-0.60","ANBL","2","f","rechts","21","","fixation","","","",""
"1343","img/120_210.png","74","image-keyboard-response","127","466625","0.0-6.0-1.60","ANBL","2","f","rechts","21","","","self","j","120","true"
"null","<div style=""font-size:60px;"">+</div>","null","html-keyboard-response","128","466977","0.0-6.0-0.61","ANBL","2","f","rechts","21","","fixation","","","",""
"1178","img/90_240.png","74","image-keyboard-response","129","468155","0.0-6.0-1.61","ANBL","2","f","rechts","21","","","self","j","90","true"
"null","<div style=""font-size:60px;"">+</div>","null","html-keyboard-response","130","468607","0.0-6.0-0.62","ANBL","2","f","rechts","21","","fixation","","","",""
"1079","img/90_180.png","74","image-keyboard-response","131","469686","0.0-6.0-1.62","ANBL","2","f","rechts","21","","","self","j","90","true"
"null","<div style=""font-size:60px;"">+</div>","null","html-keyboard-response","132","470188","0.0-6.0-0.63","ANBL","2","f","rechts","21","","fixation","","","",""
"659","img/0_210.png","70","image-keyboard-response","133","470848","0.0-6.0-1.63","ANBL","2","f","rechts","21","","","self","f","0","true"
"null","<div style=""font-size:60px;"">+</div>","null","html-keyboard-response","134","471150","0.0-6.0-0.64","ANBL","2","f","rechts","21","","fixation","","","",""
"1587","img/90_30.png","74","image-keyboard-response","135","472737","0.0-6.0-1.64","ANBL","2","f","rechts","21","","","self","j","90","true"
"null","<div style=""font-size:60px;"">+</div>","null","html-keyboard-response","136","473089","0.0-6.0-0.65","ANBL","2","f","rechts","21","","fixation","","","",""
"1539","img/60_180.png","74","image-keyboard-response","137","474629","0.0-6.0-1.65","ANBL","2","f","rechts","21","","","self","j","60","true"
"null","<div style=""font-size:60px;"">+</div>","null","html-keyboard-response","138","475081","0.0-6.0-0.66","ANBL","2","f","rechts","21","","fixation","","","",""
"1524","img/30_60.png","74","image-keyboard-response","139","476605","0.0-6.0-1.66","ANBL","2","f","rechts","21","","","self","j","30","true"
"null","<div style=""font-size:60px;"">+</div>","null","html-keyboard-response","140","477007","0.0-6.0-0.67","ANBL","2","f","rechts","21","","fixation","","","",""
"752","img/0_120.png","74","image-keyboard-response","141","477759","0.0-6.0-1.67","ANBL","2","f","rechts","21","","","self","j","0","true"
"null","<div style=""font-size:60px;"">+</div>","null","html-keyboard-response","142","478211","0.0-6.0-0.68","ANBL","2","f","rechts","21","","fixation","","","",""
"826","img/L30_180.png","70","image-keyboard-response","143","479037","0.0-6.0-1.68","ANBL","2","f","rechts","21","","","self","f","30","true"
"null","<div style=""font-size:60px;"">+</div>","null","html-keyboard-response","144","479488","0.0-6.0-0.69","ANBL","2","f","rechts","21","","fixation","","","",""
"2029","img/60_270.png","70","image-keyboard-response","145","481519","0.0-6.0-1.69","ANBL","2","f","rechts","21","","","self","f","60","true"
"null","<div style=""font-size:60px;"">+</div>","null","html-keyboard-response","146","481819","0.0-6.0-0.70","ANBL","2","f","rechts","21","","fixation","","","",""
"707","img/0_330.png","70","image-keyboard-response","147","482527","0.0-6.0-1.70","ANBL","2","f","rechts","21","","","self","f","0","true"
"null","<div style=""font-size:60px;"">+</div>","null","html-keyboard-response","148","482979","0.0-6.0-0.71","ANBL","2","f","rechts","21","","fixation","","","",""
"1687","img/60_330.png","70","image-keyboard-response","149","484666","0.0-6.0-1.71","ANBL","2","f","rechts","21","","","self","f","60","true"
"null","<div style=""font-size:60px;"">+</div>","null","html-keyboard-response","150","484968","0.0-6.0-0.72","ANBL","2","f","rechts","21","","fixation","","","",""
"1539","img/60_90.png","74","image-keyboard-response","151","486509","0.0-6.0-1.72","ANBL","2","f","rechts","21","","","self","j","60","true"
"null","<div style=""font-size:60px;"">+</div>","null","html-keyboard-response","152","486860","0.0-6.0-0.73","ANBL","2","f","rechts","21","","fixation","","","",""
"1165","img/90_120.png","70","image-keyboard-response","153","488027","0.0-6.0-1.73","ANBL","2","f","rechts","21","","","self","f","90","true"
"null","<div style=""font-size:60px;"">+</div>","null","html-keyboard-response","154","488328","0.0-6.0-0.74","ANBL","2","f","rechts","21","","fixation","","","",""
"1086","img/L90_180.png","70","image-keyboard-response","155","489416","0.0-6.0-1.74","ANBL","2","f","rechts","21","","","self","f","90","true"
"null","<div style=""font-size:60px;"">+</div>","null","html-keyboard-response","156","489817","0.0-6.0-0.75","ANBL","2","f","rechts","21","","fixation","","","",""
"959","img/90_150.png","70","image-keyboard-response","157","490777","0.0-6.0-1.75","ANBL","2","f","rechts","21","","","self","f","90","true"
"null","<div style=""font-size:60px;"">+</div>","null","html-keyboard-response","158","491229","0.0-6.0-0.76","ANBL","2","f","rechts","21","","fixation","","","",""
"1063","img/60_30.png","74","image-keyboard-response","159","492292","0.0-6.0-1.76","ANBL","2","f","rechts","21","","","self","j","60","true"
"null","<div style=""font-size:60px;"">+</div>","null","html-keyboard-response","160","492644","0.0-6.0-0.77","ANBL","2","f","rechts","21","","fixation","","","",""
"1086","img/L150_180.png","70","image-keyboard-response","161","493731","0.0-6.0-1.77","ANBL","2","f","rechts","21","","","self","f","150","true"
"null","<div style=""font-size:60px;"">+</div>","null","html-keyboard-response","162","494183","0.0-6.0-0.78","ANBL","2","f","rechts","21","","fixation","","","",""
"1313","img/0_240.png","70","image-keyboard-response","163","495497","0.0-6.0-1.78","ANBL","2","f","rechts","21","","","self","f","0","true"
"null","<div style=""font-size:60px;"">+</div>","null","html-keyboard-response","164","495999","0.0-6.0-0.79","ANBL","2","f","rechts","21","","fixation","","","",""
"1079","img/90_210.png","74","image-keyboard-response","165","497079","0.0-6.0-1.79","ANBL","2","f","rechts","21","","","self","j","90","true"
"null","<div style=""font-size:60px;"">+</div>","null","html-keyboard-response","166","497381","0.0-6.0-0.80","ANBL","2","f","rechts","21","","fixation","","","",""
"1808","img/150_90.png","70","image-keyboard-response","167","499189","0.0-6.0-1.80","ANBL","2","f","rechts","21","","","self","f","150","true"
"null","<div style=""font-size:60px;"">+</div>","null","html-keyboard-response","168","499641","0.0-6.0-0.81","ANBL","2","f","rechts","21","","fixation","","","",""
"2223","img/90_300.png","70","image-keyboard-response","169","501865","0.0-6.0-1.81","ANBL","2","f","rechts","21","","","self","f","90","true"
"null","<div style=""font-size:60px;"">+</div>","null","html-keyboard-response","170","502167","0.0-6.0-0.82","ANBL","2","f","rechts","21","","fixation","","","",""
"1344","img/120_150.png","70","image-keyboard-response","171","503512","0.0-6.0-1.82","ANBL","2","f","rechts","21","","","self","f","120","true"
"null","<div style=""font-size:60px;"">+</div>","null","html-keyboard-response","172","503864","0.0-6.0-0.83","ANBL","2","f","rechts","21","","fixation","","","",""
"993","img/120_180.png","74","image-keyboard-response","173","504858","0.0-6.0-1.83","ANBL","2","f","rechts","21","","","self","j","120","true"
"null","<div style=""font-size:60px;"">+</div>","null","html-keyboard-response","174","505310","0.0-6.0-0.84","ANBL","2","f","rechts","21","","fixation","","","",""
"1711","img/90_60.png","74","image-keyboard-response","175","507022","0.0-6.0-1.84","ANBL","2","f","rechts","21","","","self","j","90","true"
"null","<div style=""font-size:60px;"">+</div>","null","html-keyboard-response","176","507474","0.0-6.0-0.85","ANBL","2","f","rechts","21","","fixation","","","",""
"807","img/L120_180.png","70","image-keyboard-response","177","508282","0.0-6.0-1.85","ANBL","2","f","rechts","21","","","self","f","120","true"
"null","<div style=""font-size:60px;"">+</div>","null","html-keyboard-response","178","508633","0.0-6.0-0.86","ANBL","2","f","rechts","21","","fixation","","","",""
"1864","img/120_30.png","74","image-keyboard-response","179","510498","0.0-6.0-1.86","ANBL","2","f","rechts","21","","","self","j","120","true"
"null","<div style=""font-size:60px;"">+</div>","null","html-keyboard-response","180","511000","0.0-6.0-0.87","ANBL","2","f","rechts","21","","fixation","","","",""
"1109","img/150_180.png","74","image-keyboard-response","181","512110","0.0-6.0-1.87","ANBL","2","f","rechts","21","","","self","j","150","true"
"null","<div style=""font-size:60px;"">+</div>","null","html-keyboard-response","182","512512","0.0-6.0-0.88","ANBL","2","f","rechts","21","","fixation","","","",""
"1171","img/30_270.png","70","image-keyboard-response","183","513683","0.0-6.0-1.88","ANBL","2","f","rechts","21","","","self","f","30","true"
"null","<div style=""font-size:60px;"">+</div>","null","html-keyboard-response","184","514035","0.0-6.0-0.89","ANBL","2","f","rechts","21","","fixation","","","",""
"1673","img/60_150.png","70","image-keyboard-response","185","515708","0.0-6.0-1.89","ANBL","2","f","rechts","21","","","self","f","60","true"
"null","<div style=""font-size:60px;"">+</div>","null","html-keyboard-response","186","516110","0.0-6.0-0.90","ANBL","2","f","rechts","21","","fixation","","","",""
"1150","img/30_90.png","74","image-keyboard-response","187","517260","0.0-6.0-1.90","ANBL","2","f","rechts","21","","","self","j","30","true"
"null","<div style=""font-size:60px;"">+</div>","null","html-keyboard-response","188","517712","0.0-6.0-0.91","ANBL","2","f","rechts","21","","fixation","","","",""
"1219","img/60_210.png","74","image-keyboard-response","189","518931","0.0-6.0-1.91","ANBL","2","f","rechts","21","","","self","j","60","true"
"null","<div style=""font-size:60px;"">+</div>","null","html-keyboard-response","190","519233","0.0-6.0-0.92","ANBL","2","f","rechts","21","","fixation","","","",""
"1963","img/30_120.png","74","image-keyboard-response","191","521196","0.0-6.0-1.92","ANBL","2","f","rechts","21","","","self","j","30","true"
"null","<div style=""font-size:60px;"">+</div>","null","html-keyboard-response","192","521548","0.0-6.0-0.93","ANBL","2","f","rechts","21","","fixation","","","",""
"1686","img/150_240.png","74","image-keyboard-response","193","523234","0.0-6.0-1.93","ANBL","2","f","rechts","21","","","self","j","150","true"
"null","<div style=""font-size:60px;"">+</div>","null","html-keyboard-response","194","523736","0.0-6.0-0.94","ANBL","2","f","rechts","21","","fixation","","","",""
"1544","img/90_330.png","70","image-keyboard-response","195","525280","0.0-6.0-1.94","ANBL","2","f","rechts","21","","","self","f","90","true"
"null","<div style=""font-size:60px;"">+</div>","null","html-keyboard-response","196","525732","0.0-6.0-0.95","ANBL","2","f","rechts","21","","fixation","","","",""
"732","img/0_270.png","70","image-keyboard-response","197","526464","0.0-6.0-1.95","ANBL","2","f","rechts","21","","","self","f","0","true"
"null","<div style=""font-size:60px;"">+</div>","null","html-keyboard-response","198","526915","0.0-6.0-0.96","ANBL","2","f","rechts","21","","fixation","","","",""
"1586","img/120_90.png","70","image-keyboard-response","199","528502","0.0-6.0-1.96","ANBL","2","f","rechts","21","","","self","f","120","true"
"null","<div style=""font-size:60px;"">+</div>","null","html-keyboard-response","200","528802","0.0-6.0-0.97","ANBL","2","f","rechts","21","","fixation","","","",""
"1460","img/150_270.png","74","image-keyboard-response","201","530263","0.0-6.0-1.97","ANBL","2","f","rechts","21","","","self","j","150","true"
"null","<div style=""font-size:60px;"">+</div>","null","html-keyboard-response","202","530714","0.0-6.0-0.98","ANBL","2","f","rechts","21","","fixation","","","",""
"1856","img/150_60.png","70","image-keyboard-response","203","532572","0.0-6.0-1.98","ANBL","2","f","rechts","21","","","self","f","150","true"
"null","<div style=""font-size:60px;"">+</div>","null","html-keyboard-response","204","533023","0.0-6.0-0.99","ANBL","2","f","rechts","21","","fixation","","","",""
"1424","img/120_330.png","70","image-keyboard-response","205","534449","0.0-6.0-1.99","ANBL","2","f","rechts","21","","","self","f","120","true"
"null","<div style=""font-size:60px;"">+</div>","null","html-keyboard-response","206","534801","0.0-6.0-0.100","ANBL","2","f","rechts","21","","fixation","","","",""
"937","img/120_270.png","74","image-keyboard-response","207","535739","0.0-6.0-1.100","ANBL","2","f","rechts","21","","","self","j","120","true"
"null","<div style=""font-size:60px;"">+</div>","null","html-keyboard-response","208","536240","0.0-6.0-0.101","ANBL","2","f","rechts","21","","fixation","","","",""
"721","img/0_150.png","74","image-keyboard-response","209","536962","0.0-6.0-1.101","ANBL","2","f","rechts","21","","","self","j","0","true"
"null","<div style=""font-size:60px;"">+</div>","null","html-keyboard-response","210","537463","0.0-6.0-0.102","ANBL","2","f","rechts","21","","fixation","","","",""
"836","img/30_300.png","70","image-keyboard-response","211","538300","0.0-6.0-1.102","ANBL","2","f","rechts","21","","","self","f","30","true"
"null","<div style=""font-size:60px;"">+</div>","null","html-keyboard-response","212","538802","0.0-6.0-0.103","ANBL","2","f","rechts","21","","fixation","","","",""
"1008","img/30_180.png","74","image-keyboard-response","213","539811","0.0-6.0-1.103","ANBL","2","f","rechts","21","","","self","j","30","true"
"null","<div style=""font-size:60px;"">+</div>","null","html-keyboard-response","214","540113","0.0-6.0-0.104","ANBL","2","f","rechts","21","","fixation","","","",""
"1874","img/150_300.png","74","image-keyboard-response","215","541989","0.0-6.0-1.104","ANBL","2","f","rechts","21","","","self","j","150","true"
"null","<div style=""font-size:60px;"">+</div>","null","html-keyboard-response","216","542490","0.0-6.0-0.105","ANBL","2","f","rechts","21","","fixation","","","",""
"1199","img/120_270.png","74","image-keyboard-response","217","543690","0.0-6.0-1.105","ANBL","2","f","rechts","21","","","self","j","120","true"
"null","<div style=""font-size:60px;"">+</div>","null","html-keyboard-response","218","543992","0.0-6.0-0.106","ANBL","2","f","rechts","21","","fixation","","","",""
"1248","img/60_270.png","70","image-keyboard-response","219","545241","0.0-6.0-1.106","ANBL","2","f","rechts","21","","","self","f","60","true"
"null","<div style=""font-size:60px;"">+</div>","null","html-keyboard-response","220","545743","0.0-6.0-0.107","ANBL","2","f","rechts","21","","fixation","","","",""
"758","img/0_270.png","70","image-keyboard-response","221","546502","0.0-6.0-1.107","ANBL","2","f","rechts","21","","","self","f","0","true"
"null","<div style=""font-size:60px;"">+</div>","null","html-keyboard-response","222","546954","0.0-6.0-0.108","ANBL","2","f","rechts","21","","fixation","","","",""
"1076","img/60_30.png","74","image-keyboard-response","223","548031","0.0-6.0-1.108","ANBL","2","f","rechts","21","","","self","j","60","true"
"null","<div style=""font-size:60px;"">+</div>","null","html-keyboard-response","224","548533","0.0-6.0-0.109","ANBL","2","f","rechts","21","","fixation","","","",""
"2141","img/150_90.png","70","image-keyboard-response","225","550674","0.0-6.0-1.109","ANBL","2","f","rechts","21","","","self","f","150","true"
"null","<div style=""font-size:60px;"">+</div>","null","html-keyboard-response","226","551176","0.0-6.0-0.110","ANBL","2","f","rechts","21","","fixation","","","",""
"1549","img/90_60.png","74","image-keyboard-response","227","552727","0.0-6.0-1.110","ANBL","2","f","rechts","21","","","self","j","90","true"
"null","<div style=""font-size:60px;"">+</div>","null","html-keyboard-response","228","553128","0.0-6.0-0.111","ANBL","2","f","rechts","21","","fixation","","","",""
"1470","img/150_240.png","74","image-keyboard-response","229","554599","0.0-6.0-1.111","ANBL","2","f","rechts","21","","","self","j","150","true"
"null","<div style=""font-size:60px;"">+</div>","null","html-keyboard-response","230","555051","0.0-6.0-0.112","ANBL","2","f","rechts","21","","fixation","","","",""
"1237","img/90_300.png","70","image-keyboard-response","231","556289","0.0-6.0-1.112","ANBL","2","f","rechts","21","","","self","f","90","true"
"null","<div style=""font-size:60px;"">+</div>","null","html-keyboard-response","232","556691","0.0-6.0-0.113","ANBL","2","f","rechts","21","","fixation","","","",""
"1560","img/90_240.png","74","image-keyboard-response","233","558251","0.0-6.0-1.113","ANBL","2","f","rechts","21","","","self","j","90","true"
"null","<div style=""font-size:60px;"">+</div>","null","html-keyboard-response","234","558603","0.0-6.0-0.114","ANBL","2","f","rechts","21","","fixation","","","",""
"1520","img/60_330.png","70","image-keyboard-response","235","560124","0.0-6.0-1.114","ANBL","2","f","rechts","21","","","self","f","60","true"
"null","<div style=""font-size:60px;"">+</div>","null","html-keyboard-response","236","560576","0.0-6.0-0.115","ANBL","2","f","rechts","21","","fixation","","","",""
"626","img/0_300.png","70","image-keyboard-response","237","561202","0.0-6.0-1.115","ANBL","2","f","rechts","21","","","self","f","0","true"
"null","<div style=""font-size:60px;"">+</div>","null","html-keyboard-response","238","561604","0.0-6.0-0.116","ANBL","2","f","rechts","21","","fixation","","","",""
"1972","img/90_210.png","74","image-keyboard-response","239","563576","0.0-6.0-1.116","ANBL","2","f","rechts","21","","","self","j","90","true"
"null","<div style=""font-size:60px;"">+</div>","null","html-keyboard-response","240","563978","0.0-6.0-0.117","ANBL","2","f","rechts","21","","fixation","","","",""
"1403","img/120_180.png","74","image-keyboard-response","241","565382","0.0-6.0-1.117","ANBL","2","f","rechts","21","","","self","j","120","true"
"null","<div style=""font-size:60px;"">+</div>","null","html-keyboard-response","242","565734","0.0-6.0-0.118","ANBL","2","f","rechts","21","","fixation","","","",""
"765","img/0_60.png","74","image-keyboard-response","243","566499","0.0-6.0-1.118","ANBL","2","f","rechts","21","","","self","j","0","true"
"null","<div style=""font-size:60px;"">+</div>","null","html-keyboard-response","244","566851","0.0-6.0-0.119","ANBL","2","f","rechts","21","","fixation","","","",""
"971","img/90_180.png","74","image-keyboard-response","245","567822","0.0-6.0-1.119","ANBL","2","f","rechts","21","","","self","j","90","true"
"null","<div style=""font-size:60px;"">+</div>","null","html-keyboard-response","246","568174","0.0-6.0-0.120","ANBL","2","f","rechts","21","","fixation","","","",""
"1346","img/30_90.png","74","image-keyboard-response","247","569521","0.0-6.0-1.120","ANBL","2","f","rechts","21","","","self","j","30","true"
"null","<div style=""font-size:60px;"">+</div>","null","html-keyboard-response","248","569822","0.0-6.0-0.121","ANBL","2","f","rechts","21","","fixation","","","",""
"1465","img/60_150.png","70","image-keyboard-response","249","571288","0.0-6.0-1.121","ANBL","2","f","rechts","21","","","self","f","60","true"
"null","<div style=""font-size:60px;"">+</div>","null","html-keyboard-response","250","571790","0.0-6.0-0.122","ANBL","2","f","rechts","21","","fixation","","","",""
"986","img/L30_180.png","70","image-keyboard-response","251","572777","0.0-6.0-1.122","ANBL","2","f","rechts","21","","","self","f","30","true"
"null","<div style=""font-size:60px;"">+</div>","null","html-keyboard-response","252","573129","0.0-6.0-0.123","ANBL","2","f","rechts","21","","fixation","","","",""
"1350","img/0_90.png","74","image-keyboard-response","253","574479","0.0-6.0-1.123","ANBL","2","f","rechts","21","","","self","j","0","true"
"null","<div style=""font-size:60px;"">+</div>","null","html-keyboard-response","254","574781","0.0-6.0-0.124","ANBL","2","f","rechts","21","","fixation","","","",""
"1016","img/90_150.png","70","image-keyboard-response","255","575798","0.0-6.0-1.124","ANBL","2","f","rechts","21","","","self","f","90","true"
"null","<div style=""font-size:60px;"">+</div>","null","html-keyboard-response","256","576200","0.0-6.0-0.125","ANBL","2","f","rechts","21","","fixation","","","",""
"761","img/L60_180.png","70","image-keyboard-response","257","576962","0.0-6.0-1.125","ANBL","2","f","rechts","21","","","self","f","60","true"
"null","<div style=""font-size:60px;"">+</div>","null","html-keyboard-response","258","577263","0.0-6.0-0.126","ANBL","2","f","rechts","21","","fixation","","","",""
"1334","img/90_120.png","70","image-keyboard-response","259","578599","0.0-6.0-1.126","ANBL","2","f","rechts","21","","","self","f","90","true"
"null","<div style=""font-size:60px;"">+</div>","null","html-keyboard-response","260","579100","0.0-6.0-0.127","ANBL","2","f","rechts","21","","fixation","","","",""
"750","img/0_150.png","74","image-keyboard-response","261","579852","0.0-6.0-1.127","ANBL","2","f","rechts","21","","","self","j","0","true"
"null","<div style=""font-size:60px;"">+</div>","null","html-keyboard-response","262","580254","0.0-6.0-0.128","ANBL","2","f","rechts","21","","fixation","","","",""
"945","img/30_270.png","70","image-keyboard-response","263","581200","0.0-6.0-1.128","ANBL","2","f","rechts","21","","","self","f","30","true"
"null","<div style=""font-size:60px;"">+</div>","null","html-keyboard-response","264","581601","0.0-6.0-0.129","ANBL","2","f","rechts","21","","fixation","","","",""
"1533","img/90_330.png","70","image-keyboard-response","265","583135","0.0-6.0-1.129","ANBL","2","f","rechts","21","","","self","f","90","true"
"null","<div style=""font-size:60px;"">+</div>","null","html-keyboard-response","266","583587","0.0-6.0-0.130","ANBL","2","f","rechts","21","","fixation","","","",""
"643","img/0_30.png","74","image-keyboard-response","267","584230","0.0-6.0-1.130","ANBL","2","f","rechts","21","","","self","j","0","true"
"null","<div style=""font-size:60px;"">+</div>","null","html-keyboard-response","268","584632","0.0-6.0-0.131","ANBL","2","f","rechts","21","","fixation","","","",""
"793","img/L150_180.png","70","image-keyboard-response","269","585426","0.0-6.0-1.131","ANBL","2","f","rechts","21","","","self","f","150","true"
"null","<div style=""font-size:60px;"">+</div>","null","html-keyboard-response","270","585777","0.0-6.0-0.132","ANBL","2","f","rechts","21","","fixation","","","",""
"1152","img/150_180.png","74","image-keyboard-response","271","586931","0.0-6.0-1.132","ANBL","2","f","rechts","21","","","self","j","150","true"
"null","<div style=""font-size:60px;"">+</div>","null","html-keyboard-response","272","587332","0.0-6.0-0.133","ANBL","2","f","rechts","21","","fixation","","","",""
"1747","img/150_60.png","70","image-keyboard-response","273","589080","0.0-6.0-1.133","ANBL","2","f","rechts","21","","","self","f","150","true"
"null","<div style=""font-size:60px;"">+</div>","null","html-keyboard-response","274","589482","0.0-6.0-0.134","ANBL","2","f","rechts","21","","fixation","","","",""
"684","img/0_240.png","70","image-keyboard-response","275","590168","0.0-6.0-1.134","ANBL","2","f","rechts","21","","","self","f","0","true"
"null","<div style=""font-size:60px;"">+</div>","null","html-keyboard-response","276","590519","0.0-6.0-0.135","ANBL","2","f","rechts","21","","fixation","","","",""
"749","img/0_120.png","74","image-keyboard-response","277","591269","0.0-6.0-1.135","ANBL","2","f","rechts","21","","","self","j","0","true"
"null","<div style=""font-size:60px;"">+</div>","null","html-keyboard-response","278","591621","0.0-6.0-0.136","ANBL","2","f","rechts","21","","fixation","","","",""
"691","img/0_330.png","70","image-keyboard-response","279","592313","0.0-6.0-1.136","ANBL","2","f","rechts","21","","","self","f","0","true"
"null","<div style=""font-size:60px;"">+</div>","null","html-keyboard-response","280","592665","0.0-6.0-0.137","ANBL","2","f","rechts","21","","fixation","","","",""
"873","img/L90_180.png","70","image-keyboard-response","281","593540","0.0-6.0-1.137","ANBL","2","f","rechts","21","","","self","f","90","true"
"null","<div style=""font-size:60px;"">+</div>","null","html-keyboard-response","282","593991","0.0-6.0-0.138","ANBL","2","f","rechts","21","","fixation","","","",""
"1302","img/30_60.png","74","image-keyboard-response","283","595294","0.0-6.0-1.138","ANBL","2","f","rechts","21","","","self","j","30","true"
"null","<div style=""font-size:60px;"">+</div>","null","html-keyboard-response","284","595646","0.0-6.0-0.139","ANBL","2","f","rechts","21","","fixation","","","",""
"1461","img/90_30.png","74","image-keyboard-response","285","597108","0.0-6.0-1.139","ANBL","2","f","rechts","21","","","self","j","90","true"
"null","<div style=""font-size:60px;"">+</div>","null","html-keyboard-response","286","597460","0.0-6.0-0.140","ANBL","2","f","rechts","21","","fixation","","","",""
"928","img/30_240.png","70","image-keyboard-response","287","598389","0.0-6.0-1.140","ANBL","2","f","rechts","21","","","self","f","30","true"
"null","<div style=""font-size:60px;"">+</div>","null","html-keyboard-response","288","598691","0.0-6.0-0.141","ANBL","2","f","rechts","21","","fixation","","","",""
"1228","img/120_30.png","74","image-keyboard-response","289","599920","0.0-6.0-1.141","ANBL","2","f","rechts","21","","","self","j","120","true"
"null","<div style=""font-size:60px;"">+</div>","null","html-keyboard-response","290","600222","0.0-6.0-0.142","ANBL","2","f","rechts","21","","fixation","","","",""
"1237","img/150_120.png","70","image-keyboard-response","291","601460","0.0-6.0-1.142","ANBL","2","f","rechts","21","","","self","f","150","true"
"null","<div style=""font-size:60px;"">+</div>","null","html-keyboard-response","292","601912","0.0-6.0-0.143","ANBL","2","f","rechts","21","","fixation","","","",""
"1071","img/120_330.png","70","image-keyboard-response","293","602984","0.0-6.0-1.143","ANBL","2","f","rechts","21","","","self","f","120","true"
"null","<div style=""font-size:60px;"">+</div>","null","html-keyboard-response","294","603286","0.0-6.0-0.144","ANBL","2","f","rechts","21","","fixation","","","",""
"960","img/60_210.png","70","image-keyboard-response","295","604246","0.0-6.0-1.144","ANBL","2","f","rechts","21","","","self","j","60","false"
"null","<div style=""font-size:60px;"">+</div>","null","html-keyboard-response","296","604548","0.0-6.0-0.145","ANBL","2","f","rechts","21","","fixation","","","",""
"715","img/0_210.png","70","image-keyboard-response","297","605264","0.0-6.0-1.145","ANBL","2","f","rechts","21","","","self","f","0","true"
"null","<div style=""font-size:60px;"">+</div>","null","html-keyboard-response","298","605566","0.0-6.0-0.146","ANBL","2","f","rechts","21","","fixation","","","",""
"720","img/60_180.png","74","image-keyboard-response","299","606287","0.0-6.0-1.146","ANBL","2","f","rechts","21","","","self","j","60","true"
"null","<div style=""font-size:60px;"">+</div>","null","html-keyboard-response","300","606639","0.0-6.0-0.147","ANBL","2","f","rechts","21","","fixation","","","",""
"935","img/120_210.png","74","image-keyboard-response","301","607574","0.0-6.0-1.147","ANBL","2","f","rechts","21","","","self","j","120","true"
"null","<div style=""font-size:60px;"">+</div>","null","html-keyboard-response","302","607976","0.0-6.0-0.148","ANBL","2","f","rechts","21","","fixation","","","",""
"625","img/L120_180.png","70","image-keyboard-response","303","608602","0.0-6.0-1.148","ANBL","2","f","rechts","21","","","self","f","120","true"
"null","<div style=""font-size:60px;"">+</div>","null","html-keyboard-response","304","609104","0.0-6.0-0.149","ANBL","2","f","rechts","21","","fixation","","","",""
"1078","img/120_90.png","70","image-keyboard-response","305","610183","0.0-6.0-1.149","ANBL","2","f","rechts","21","","","self","f","120","true"
"null","<div style=""font-size:60px;"">+</div>","null","html-keyboard-response","306","610585","0.0-6.0-0.150","ANBL","2","f","rechts","21","","fixation","","","",""
"973","img/30_300.png","70","image-keyboard-response","307","611558","0.0-6.0-1.150","ANBL","2","f","rechts","21","","","self","f","30","true"
"null","<div style=""font-size:60px;"">+</div>","null","html-keyboard-response","308","612010","0.0-6.0-0.151","ANBL","2","f","rechts","21","","fixation","","","",""
"966","img/30_120.png","74","image-keyboard-response","309","612976","0.0-6.0-1.151","ANBL","2","f","rechts","21","","","self","j","30","true"
"null","<div style=""font-size:60px;"">+</div>","null","html-keyboard-response","310","613478","0.0-6.0-0.152","ANBL","2","f","rechts","21","","fixation","","","",""
"1113","img/150_270.png","74","image-keyboard-response","311","614591","0.0-6.0-1.152","ANBL","2","f","rechts","21","","","self","j","150","true"
"null","<div style=""font-size:60px;"">+</div>","null","html-keyboard-response","312","614993","0.0-6.0-0.153","ANBL","2","f","rechts","21","","fixation","","","",""
"885","img/120_150.png","70","image-keyboard-response","313","615878","0.0-6.0-1.153","ANBL","2","f","rechts","21","","","self","f","120","true"
"null","<div style=""font-size:60px;"">+</div>","null","html-keyboard-response","314","616180","0.0-6.0-0.154","ANBL","2","f","rechts","21","","fixation","","","",""
"1107","img/60_90.png","74","image-keyboard-response","315","617287","0.0-6.0-1.154","ANBL","2","f","rechts","21","","","self","j","60","true"
"null","<div style=""font-size:60px;"">+</div>","null","html-keyboard-response","316","617589","0.0-6.0-0.155","ANBL","2","f","rechts","21","","fixation","","","",""
"1274","img/30_180.png","74","image-keyboard-response","317","618863","0.0-6.0-1.155","ANBL","2","f","rechts","21","","","self","j","30","true"
"null","<div style=""font-size:60px;"">+</div>","null","html-keyboard-response","318","619264","0.0-6.0-0.156","ANBL","2","f","rechts","21","","fixation","","","",""
"1195","img/0_60.png","74","image-keyboard-response","319","620460","0.0-6.0-1.156","ANBL","2","f","rechts","21","","","self","j","0","true"
"null","<div style=""font-size:60px;"">+</div>","null","html-keyboard-response","320","620911","0.0-6.0-0.157","ANBL","2","f","rechts","21","","fixation","","","",""
"825","img/60_270.png","70","image-keyboard-response","321","621737","0.0-6.0-1.157","ANBL","2","f","rechts","21","","","self","f","60","true"
"null","<div style=""font-size:60px;"">+</div>","null","html-keyboard-response","322","622139","0.0-6.0-0.158","ANBL","2","f","rechts","21","","fixation","","","",""
"805","img/30_90.png","74","image-keyboard-response","323","622944","0.0-6.0-1.158","ANBL","2","f","rechts","21","","","self","j","30","true"
"null","<div style=""font-size:60px;"">+</div>","null","html-keyboard-response","324","623346","0.0-6.0-0.159","ANBL","2","f","rechts","21","","fixation","","","",""
"749","img/0_90.png","74","image-keyboard-response","325","624095","0.0-6.0-1.159","ANBL","2","f","rechts","21","","","self","j","0","true"
"null","<div style=""font-size:60px;"">+</div>","null","html-keyboard-response","326","624597","0.0-6.0-0.160","ANBL","2","f","rechts","21","","fixation","","","",""
"1120","img/150_180.png","74","image-keyboard-response","327","625717","0.0-6.0-1.160","ANBL","2","f","rechts","21","","","self","j","150","true"
"null","<div style=""font-size:60px;"">+</div>","null","html-keyboard-response","328","626119","0.0-6.0-0.161","ANBL","2","f","rechts","21","","fixation","","","",""
"742","img/L90_180.png","70","image-keyboard-response","329","626861","0.0-6.0-1.161","ANBL","2","f","rechts","21","","","self","f","90","true"
"null","<div style=""font-size:60px;"">+</div>","null","html-keyboard-response","330","627213","0.0-6.0-0.162","ANBL","2","f","rechts","21","","fixation","","","",""
"1188","img/60_180.png","74","image-keyboard-response","331","628401","0.0-6.0-1.162","ANBL","2","f","rechts","21","","","self","j","60","true"
"null","<div style=""font-size:60px;"">+</div>","null","html-keyboard-response","332","628752","0.0-6.0-0.163","ANBL","2","f","rechts","21","","fixation","","","",""
"737","img/0_30.png","74","image-keyboard-response","333","629490","0.0-6.0-1.163","ANBL","2","f","rechts","21","","","self","j","0","true"
"null","<div style=""font-size:60px;"">+</div>","null","html-keyboard-response","334","629842","0.0-6.0-0.164","ANBL","2","f","rechts","21","","fixation","","","",""
"832","img/120_150.png","70","image-keyboard-response","335","630674","0.0-6.0-1.164","ANBL","2","f","rechts","21","","","self","f","120","true"
"null","<div style=""font-size:60px;"">+</div>","null","html-keyboard-response","336","630974","0.0-6.0-0.165","ANBL","2","f","rechts","21","","fixation","","","",""
"918","img/L30_180.png","70","image-keyboard-response","337","631894","0.0-6.0-1.165","ANBL","2","f","rechts","21","","","self","f","30","true"
"null","<div style=""font-size:60px;"">+</div>","null","html-keyboard-response","338","632195","0.0-6.0-0.166","ANBL","2","f","rechts","21","","fixation","","","",""
"986","img/90_150.png","70","image-keyboard-response","339","633182","0.0-6.0-1.166","ANBL","2","f","rechts","21","","","self","f","90","true"
"null","<div style=""font-size:60px;"">+</div>","null","html-keyboard-response","340","633584","0.0-6.0-0.167","ANBL","2","f","rechts","21","","fixation","","","",""
"888","img/30_270.png","70","image-keyboard-response","341","634473","0.0-6.0-1.167","ANBL","2","f","rechts","21","","","self","f","30","true"
"null","<div style=""font-size:60px;"">+</div>","null","html-keyboard-response","342","634875","0.0-6.0-0.168","ANBL","2","f","rechts","21","","fixation","","","",""
"921","img/150_270.png","74","image-keyboard-response","343","635796","0.0-6.0-1.168","ANBL","2","f","rechts","21","","","self","j","150","true"
"null","<div style=""font-size:60px;"">+</div>","null","html-keyboard-response","344","636248","0.0-6.0-0.169","ANBL","2","f","rechts","21","","fixation","","","",""
"898","img/60_90.png","74","image-keyboard-response","345","637148","0.0-6.0-1.169","ANBL","2","f","rechts","21","","","self","j","60","true"
"null","<div style=""font-size:60px;"">+</div>","null","html-keyboard-response","346","637599","0.0-6.0-0.170","ANBL","2","f","rechts","21","","fixation","","","",""
"838","img/90_30.png","74","image-keyboard-response","347","638439","0.0-6.0-1.170","ANBL","2","f","rechts","21","","","self","j","90","true"
"null","<div style=""font-size:60px;"">+</div>","null","html-keyboard-response","348","638741","0.0-6.0-0.171","ANBL","2","f","rechts","21","","fixation","","","",""
"1144","img/60_150.png","70","image-keyboard-response","349","639885","0.0-6.0-1.171","ANBL","2","f","rechts","21","","","self","f","60","true"
"null","<div style=""font-size:60px;"">+</div>","null","html-keyboard-response","350","640287","0.0-6.0-0.172","ANBL","2","f","rechts","21","","fixation","","","",""
"1088","img/90_330.png","70","image-keyboard-response","351","641376","0.0-6.0-1.172","ANBL","2","f","rechts","21","","","self","f","90","true"
"null","<div style=""font-size:60px;"">+</div>","null","html-keyboard-response","352","641828","0.0-6.0-0.173","ANBL","2","f","rechts","21","","fixation","","","",""
"984","img/30_180.png","74","image-keyboard-response","353","642814","0.0-6.0-1.173","ANBL","2","f","rechts","21","","","self","j","30","true"
"null","<div style=""font-size:60px;"">+</div>","null","html-keyboard-response","354","643165","0.0-6.0-0.174","ANBL","2","f","rechts","21","","fixation","","","",""
"691","img/0_240.png","70","image-keyboard-response","355","643858","0.0-6.0-1.174","ANBL","2","f","rechts","21","","","self","f","0","true"
"null","<div style=""font-size:60px;"">+</div>","null","html-keyboard-response","356","644309","0.0-6.0-0.175","ANBL","2","f","rechts","21","","fixation","","","",""
"866","img/0_210.png","70","image-keyboard-response","357","645176","0.0-6.0-1.175","ANBL","2","f","rechts","21","","","self","f","0","true"
"null","<div style=""font-size:60px;"">+</div>","null","html-keyboard-response","358","645678","0.0-6.0-0.176","ANBL","2","f","rechts","21","","fixation","","","",""
"890","img/L120_180.png","70","image-keyboard-response","359","646569","0.0-6.0-1.176","ANBL","2","f","rechts","21","","","self","f","120","true"
"null","<div style=""font-size:60px;"">+</div>","null","html-keyboard-response","360","646921","0.0-6.0-0.177","ANBL","2","f","rechts","21","","fixation","","","",""
"1126","img/90_210.png","74","image-keyboard-response","361","648048","0.0-6.0-1.177","ANBL","2","f","rechts","21","","","self","j","90","true"
"null","<div style=""font-size:60px;"">+</div>","null","html-keyboard-response","362","648400","0.0-6.0-0.178","ANBL","2","f","rechts","21","","fixation","","","",""
"941","img/60_330.png","70","image-keyboard-response","363","649342","0.0-6.0-1.178","ANBL","2","f","rechts","21","","","self","f","60","true"
"null","<div style=""font-size:60px;"">+</div>","null","html-keyboard-response","364","649793","0.0-6.0-0.179","ANBL","2","f","rechts","21","","fixation","","","",""
"1005","img/60_210.png","74","image-keyboard-response","365","650799","0.0-6.0-1.179","ANBL","2","f","rechts","21","","","self","j","60","true"
"null","<div style=""font-size:60px;"">+</div>","null","html-keyboard-response","366","651201","0.0-6.0-0.180","ANBL","2","f","rechts","21","","fixation","","","",""
"1221","img/120_270.png","74","image-keyboard-response","367","652423","0.0-6.0-1.180","ANBL","2","f","rechts","21","","","self","j","120","true"
"null","<div style=""font-size:60px;"">+</div>","null","html-keyboard-response","368","652925","0.0-6.0-0.181","ANBL","2","f","rechts","21","","fixation","","","",""
"896","img/90_300.png","70","image-keyboard-response","369","653822","0.0-6.0-1.181","ANBL","2","f","rechts","21","","","self","f","90","true"
"null","<div style=""font-size:60px;"">+</div>","null","html-keyboard-response","370","654224","0.0-6.0-0.182","ANBL","2","f","rechts","21","","fixation","","","",""
"960","img/90_240.png","74","image-keyboard-response","371","655185","0.0-6.0-1.182","ANBL","2","f","rechts","21","","","self","j","90","true"
"null","<div style=""font-size:60px;"">+</div>","null","html-keyboard-response","372","655687","0.0-6.0-0.183","ANBL","2","f","rechts","21","","fixation","","","",""
"952","img/L150_180.png","70","image-keyboard-response","373","656640","0.0-6.0-1.183","ANBL","2","f","rechts","21","","","self","f","150","true"
"null","<div style=""font-size:60px;"">+</div>","null","html-keyboard-response","374","657042","0.0-6.0-0.184","ANBL","2","f","rechts","21","","fixation","","","",""
"780","img/0_300.png","70","image-keyboard-response","375","657823","0.0-6.0-1.184","ANBL","2","f","rechts","21","","","self","f","0","true"
"null","<div style=""font-size:60px;"">+</div>","null","html-keyboard-response","376","658175","0.0-6.0-0.185","ANBL","2","f","rechts","21","","fixation","","","",""
"1072","img/30_60.png","74","image-keyboard-response","377","659248","0.0-6.0-1.185","ANBL","2","f","rechts","21","","","self","j","30","true"
"null","<div style=""font-size:60px;"">+</div>","null","html-keyboard-response","378","659600","0.0-6.0-0.186","ANBL","2","f","rechts","21","","fixation","","","",""
"1004","img/150_240.png","74","image-keyboard-response","379","660605","0.0-6.0-1.186","ANBL","2","f","rechts","21","","","self","j","150","true"
"null","<div style=""font-size:60px;"">+</div>","null","html-keyboard-response","380","661106","0.0-6.0-0.187","ANBL","2","f","rechts","21","","fixation","","","",""
"844","img/90_120.png","70","image-keyboard-response","381","661950","0.0-6.0-1.187","ANBL","2","f","rechts","21","","","self","f","90","true"
"null","<div style=""font-size:60px;"">+</div>","null","html-keyboard-response","382","662402","0.0-6.0-0.188","ANBL","2","f","rechts","21","","fixation","","","",""
"1120","img/90_60.png","74","image-keyboard-response","383","663522","0.0-6.0-1.188","ANBL","2","f","rechts","21","","","self","j","90","true"
"null","<div style=""font-size:60px;"">+</div>","null","html-keyboard-response","384","664024","0.0-6.0-0.189","ANBL","2","f","rechts","21","","fixation","","","",""
"940","img/150_90.png","70","image-keyboard-response","385","664965","0.0-6.0-1.189","ANBL","2","f","rechts","21","","","self","f","150","true"
"null","<div style=""font-size:60px;"">+</div>","null","html-keyboard-response","386","665317","0.0-6.0-0.190","ANBL","2","f","rechts","21","","fixation","","","",""
"1098","img/90_180.png","74","image-keyboard-response","387","666416","0.0-6.0-1.190","ANBL","2","f","rechts","21","","","self","j","90","true"
"null","<div style=""font-size:60px;"">+</div>","null","html-keyboard-response","388","666718","0.0-6.0-0.191","ANBL","2","f","rechts","21","","fixation","","","",""
"986","img/30_240.png","70","image-keyboard-response","389","667704","0.0-6.0-1.191","ANBL","2","f","rechts","21","","","self","f","30","true"
"null","<div style=""font-size:60px;"">+</div>","null","html-keyboard-response","390","668205","0.0-6.0-0.192","ANBL","2","f","rechts","21","","fixation","","","",""
"1163","img/120_90.png","70","image-keyboard-response","391","669368","0.0-6.0-1.192","ANBL","2","f","rechts","21","","","self","f","120","true"
"null","<div style=""font-size:60px;"">+</div>","null","html-keyboard-response","392","669870","0.0-6.0-0.193","ANBL","2","f","rechts","21","","fixation","","","",""
"786","img/0_150.png","74","image-keyboard-response","393","670656","0.0-6.0-1.193","ANBL","2","f","rechts","21","","","self","j","0","true"
"null","<div style=""font-size:60px;"">+</div>","null","html-keyboard-response","394","671108","0.0-6.0-0.194","ANBL","2","f","rechts","21","","fixation","","","",""
"1349","img/60_30.png","74","image-keyboard-response","395","672457","0.0-6.0-1.194","ANBL","2","f","rechts","21","","","self","j","60","true"
"null","<div style=""font-size:60px;"">+</div>","null","html-keyboard-response","396","672759","0.0-6.0-0.195","ANBL","2","f","rechts","21","","fixation","","","",""
"1431","img/120_210.png","74","image-keyboard-response","397","674190","0.0-6.0-1.195","ANBL","2","f","rechts","21","","","self","j","120","true"
"null","<div style=""font-size:60px;"">+</div>","null","html-keyboard-response","398","674542","0.0-6.0-0.196","ANBL","2","f","rechts","21","","fixation","","","",""
"1672","img/150_60.png","70","image-keyboard-response","399","676214","0.0-6.0-1.196","ANBL","2","f","rechts","21","","","self","f","150","true"
"null","<div style=""font-size:60px;"">+</div>","null","html-keyboard-response","400","676516","0.0-6.0-0.197","ANBL","2","f","rechts","21","","fixation","","","",""
"706","img/0_120.png","74","image-keyboard-response","401","677223","0.0-6.0-1.197","ANBL","2","f","rechts","21","","","self","j","0","true"
"null","<div style=""font-size:60px;"">+</div>","null","html-keyboard-response","402","677624","0.0-6.0-0.198","ANBL","2","f","rechts","21","","fixation","","","",""
"1067","img/30_120.png","74","image-keyboard-response","403","678692","0.0-6.0-1.198","ANBL","2","f","rechts","21","","","self","j","30","true"
"null","<div style=""font-size:60px;"">+</div>","null","html-keyboard-response","404","678993","0.0-6.0-0.199","ANBL","2","f","rechts","21","","fixation","","","",""
"1030","img/0_270.png","70","image-keyboard-response","405","680025","0.0-6.0-1.199","ANBL","2","f","rechts","21","","","self","f","0","true"
"null","<div style=""font-size:60px;"">+</div>","null","html-keyboard-response","406","680377","0.0-6.0-0.200","ANBL","2","f","rechts","21","","fixation","","","",""
"1935","img/150_300.png","74","image-keyboard-response","407","682312","0.0-6.0-1.200","ANBL","2","f","rechts","21","","","self","j","150","true"
"null","<div style=""font-size:60px;"">+</div>","null","html-keyboard-response","408","682714","0.0-6.0-0.201","ANBL","2","f","rechts","21","","fixation","","","",""
"1326","img/120_30.png","74","image-keyboard-response","409","684040","0.0-6.0-1.201","ANBL","2","f","rechts","21","","","self","j","120","true"
"null","<div style=""font-size:60px;"">+</div>","null","html-keyboard-response","410","684441","0.0-6.0-0.202","ANBL","2","f","rechts","21","","fixation","","","",""
"1734","img/150_120.png","70","image-keyboard-response","411","686177","0.0-6.0-1.202","ANBL","2","f","rechts","21","","","self","f","150","true"
"null","<div style=""font-size:60px;"">+</div>","null","html-keyboard-response","412","686628","0.0-6.0-0.203","ANBL","2","f","rechts","21","","fixation","","","",""
"1222","img/L60_180.png","70","image-keyboard-response","413","687851","0.0-6.0-1.203","ANBL","2","f","rechts","21","","","self","f","60","true"
"null","<div style=""font-size:60px;"">+</div>","null","html-keyboard-response","414","688353","0.0-6.0-0.204","ANBL","2","f","rechts","21","","fixation","","","",""
"1368","img/30_300.png","70","image-keyboard-response","415","689722","0.0-6.0-1.204","ANBL","2","f","rechts","21","","","self","f","30","true"
"null","<div style=""font-size:60px;"">+</div>","null","html-keyboard-response","416","690174","0.0-6.0-0.205","ANBL","2","f","rechts","21","","fixation","","","",""
"574","img/0_330.png","70","image-keyboard-response","417","690749","0.0-6.0-1.205","ANBL","2","f","rechts","21","","","self","f","0","true"
"null","<div style=""font-size:60px;"">+</div>","null","html-keyboard-response","418","691251","0.0-6.0-0.206","ANBL","2","f","rechts","21","","fixation","","","",""
"974","img/120_180.png","74","image-keyboard-response","419","692227","0.0-6.0-1.206","ANBL","2","f","rechts","21","","","self","j","120","true"
"null","<div style=""font-size:60px;"">+</div>","null","html-keyboard-response","420","692629","0.0-6.0-0.207","ANBL","2","f","rechts","21","","fixation","","","",""
"1913","img/120_330.png","70","image-keyboard-response","421","694543","0.0-6.0-1.207","ANBL","2","f","rechts","21","","","self","f","120","true"
"12546","<p>Du hast in 97% der Versuche korrekt entschieden.</p><p>Deine durchschnittliche Reaktionszeit war  1125ms.</p><p>Dr&uuml;cke eine beliebige Taste, um die Session zu beenden. Vielen Dank!</p>","76","html-keyboard-response","422","707091","0.0-7.0","ANBL","2","f","rechts","21","","","","","",""
