"rt","stimulus","key_press","trial_type","trial_index","time_elapsed","internal_node_id","subject","session","sex","handedness","age","responses","test_part","condition","correct_response","angle","correct"
"1503","<p>Mental Rotation Experiment.</p> <p>Dr&uuml;cke eine beliebige Taste, um anzufangen.</p>","70","html-keyboard-response","0","1508","0.0-0.0","RHGA","2","f","rechts","19","","","","","",""
"3303","","","survey-text","1","4811","0.0-1.0","RHGA","2","f","rechts","19","{""Q0"":""RHGA""}","","","","",""
"1249","","","survey-text","2","6062","0.0-2.0","RHGA","2","f","rechts","19","{""Q0"":""2""}","","","","",""
"7486","","","survey-multi-choice","3","13551","0.0-3.0","RHGA","2","f","rechts","19","{""Q0"":""f"",""Q1"":""rechts""}","","","","",""
"4221","","","survey-text","4","17772","0.0-4.0","RHGA","2","f","rechts","19","{""Q0"":""19""}","","","","",""
"13976","<p>Stell dir vor, dass du vor einem runden Tisch stehst, auf dem sich ein blauer Ball am Tischrand befindet. Entlang des Tischrands ist jeweils ein verschieden langer Pfeil. Nun bleibst du an deinem Platz vor dem Tisch und rotierst den Tisch entlang des Pfeils (gleiche Richtung und Länge). </p> <img src='img/30_180.png'></img> <br><p> Nachdem du diese (vorgestellte) Rotation durchgef&uuml;hrt hast, schau in Richtung der Tischmitte, und entscheide dann, ob der Ball links oder rechts von dir liegt.</p> <p>Dr&uuml;cke die <strong>'f'</strong>-Taste f&uuml;r links, die <strong>'j'</strong>-Taste f&uuml;r rechts.</p><br><p> Das Bild wird jeweils 1 Sekunde lang pr&auml;sentiert. Du hast 3 Sekunden Zeit eine Entscheidung zu treffen.</p>","70","html-keyboard-response","5","31750","0.0-5.0","RHGA","2","f","rechts","19","","","","","",""
"null","<div style=""font-size:60px;"">+</div>","null","html-keyboard-response","6","33102","0.0-6.0-0.0","RHGA","2","f","rechts","19","","fixation","","","",""
"887","img/120_270.png","74","image-keyboard-response","7","33990","0.0-6.0-1.0","RHGA","2","f","rechts","19","","","object","j","120","true"
"null","<div style=""font-size:60px;"">+</div>","null","html-keyboard-response","8","34441","0.0-6.0-0.1","RHGA","2","f","rechts","19","","fixation","","","",""
"913","img/L120_180.png","70","image-keyboard-response","9","35355","0.0-6.0-1.1","RHGA","2","f","rechts","19","","","object","j","120","false"
"null","<div style=""font-size:60px;"">+</div>","null","html-keyboard-response","10","35656","0.0-6.0-0.2","RHGA","2","f","rechts","19","","fixation","","","",""
"727","img/60_90.png","74","image-keyboard-response","11","36384","0.0-6.0-1.2","RHGA","2","f","rechts","19","","","object","j","60","true"
"null","<div style=""font-size:60px;"">+</div>","null","html-keyboard-response","12","36784","0.0-6.0-0.3","RHGA","2","f","rechts","19","","fixation","","","",""
"647","img/60_180.png","70","image-keyboard-response","13","37433","0.0-6.0-1.3","RHGA","2","f","rechts","19","","","object","f","60","true"
"null","<div style=""font-size:60px;"">+</div>","null","html-keyboard-response","14","37934","0.0-6.0-0.4","RHGA","2","f","rechts","19","","fixation","","","",""
"620","img/60_150.png","74","image-keyboard-response","15","38555","0.0-6.0-1.4","RHGA","2","f","rechts","19","","","object","j","60","true"
"null","<div style=""font-size:60px;"">+</div>","null","html-keyboard-response","16","38956","0.0-6.0-0.5","RHGA","2","f","rechts","19","","fixation","","","",""
"742","img/120_90.png","74","image-keyboard-response","17","39699","0.0-6.0-1.5","RHGA","2","f","rechts","19","","","object","f","120","false"
"null","<div style=""font-size:60px;"">+</div>","null","html-keyboard-response","18","40000","0.0-6.0-0.6","RHGA","2","f","rechts","19","","fixation","","","",""
"659","img/90_300.png","70","image-keyboard-response","19","40661","0.0-6.0-1.6","RHGA","2","f","rechts","19","","","object","j","90","false"
"null","<div style=""font-size:60px;"">+</div>","null","html-keyboard-response","20","41012","0.0-6.0-0.7","RHGA","2","f","rechts","19","","fixation","","","",""
"813","img/90_210.png","70","image-keyboard-response","21","41827","0.0-6.0-1.7","RHGA","2","f","rechts","19","","","object","f","90","true"
"null","<div style=""font-size:60px;"">+</div>","null","html-keyboard-response","22","42277","0.0-6.0-0.8","RHGA","2","f","rechts","19","","fixation","","","",""
"721","img/30_300.png","70","image-keyboard-response","23","43000","0.0-6.0-1.8","RHGA","2","f","rechts","19","","","object","f","30","true"
"null","<div style=""font-size:60px;"">+</div>","null","html-keyboard-response","24","43301","0.0-6.0-0.9","RHGA","2","f","rechts","19","","fixation","","","",""
"758","img/0_270.png","70","image-keyboard-response","25","44061","0.0-6.0-1.9","RHGA","2","f","rechts","19","","","object","f","0","true"
"null","<div style=""font-size:60px;"">+</div>","null","html-keyboard-response","26","44511","0.0-6.0-0.10","RHGA","2","f","rechts","19","","fixation","","","",""
"1078","img/150_120.png","74","image-keyboard-response","27","45591","0.0-6.0-1.10","RHGA","2","f","rechts","19","","","object","f","150","false"
"null","<div style=""font-size:60px;"">+</div>","null","html-keyboard-response","28","45992","0.0-6.0-0.11","RHGA","2","f","rechts","19","","fixation","","","",""
"1063","img/90_150.png","74","image-keyboard-response","29","47056","0.0-6.0-1.11","RHGA","2","f","rechts","19","","","object","j","90","true"
"null","<div style=""font-size:60px;"">+</div>","null","html-keyboard-response","30","47558","0.0-6.0-0.12","RHGA","2","f","rechts","19","","fixation","","","",""
"594","img/30_120.png","74","image-keyboard-response","31","48153","0.0-6.0-1.12","RHGA","2","f","rechts","19","","","object","j","30","true"
"null","<div style=""font-size:60px;"">+</div>","null","html-keyboard-response","32","48654","0.0-6.0-0.13","RHGA","2","f","rechts","19","","fixation","","","",""
"834","img/150_300.png","74","image-keyboard-response","33","49489","0.0-6.0-1.13","RHGA","2","f","rechts","19","","","object","j","150","true"
"null","<div style=""font-size:60px;"">+</div>","null","html-keyboard-response","34","49840","0.0-6.0-0.14","RHGA","2","f","rechts","19","","fixation","","","",""
"959","img/60_210.png","74","image-keyboard-response","35","50799","0.0-6.0-1.14","RHGA","2","f","rechts","19","","","object","f","60","false"
"null","<div style=""font-size:60px;"">+</div>","null","html-keyboard-response","36","51101","0.0-6.0-0.15","RHGA","2","f","rechts","19","","fixation","","","",""
"957","img/90_180.png","74","image-keyboard-response","37","52059","0.0-6.0-1.15","RHGA","2","f","rechts","19","","","object","f","90","false"
"null","<div style=""font-size:60px;"">+</div>","null","html-keyboard-response","38","52510","0.0-6.0-0.16","RHGA","2","f","rechts","19","","fixation","","","",""
"840","img/L90_180.png","70","image-keyboard-response","39","53350","0.0-6.0-1.16","RHGA","2","f","rechts","19","","","object","j","90","false"
"null","<div style=""font-size:60px;"">+</div>","null","html-keyboard-response","40","53801","0.0-6.0-0.17","RHGA","2","f","rechts","19","","fixation","","","",""
"1076","img/30_180.png","70","image-keyboard-response","41","54878","0.0-6.0-1.17","RHGA","2","f","rechts","19","","","object","f","30","true"
"null","<div style=""font-size:60px;"">+</div>","null","html-keyboard-response","42","55278","0.0-6.0-0.18","RHGA","2","f","rechts","19","","fixation","","","",""
"732","img/150_270.png","74","image-keyboard-response","43","56012","0.0-6.0-1.18","RHGA","2","f","rechts","19","","","object","j","150","true"
"null","<div style=""font-size:60px;"">+</div>","null","html-keyboard-response","44","56363","0.0-6.0-0.19","RHGA","2","f","rechts","19","","fixation","","","",""
"1271","img/90_30.png","70","image-keyboard-response","45","57636","0.0-6.0-1.19","RHGA","2","f","rechts","19","","","object","f","90","true"
"null","<div style=""font-size:60px;"">+</div>","null","html-keyboard-response","46","58037","0.0-6.0-0.20","RHGA","2","f","rechts","19","","fixation","","","",""
"982","img/90_120.png","70","image-keyboard-response","47","59020","0.0-6.0-1.20","RHGA","2","f","rechts","19","","","object","j","90","false"
"null","<div style=""font-size:60px;"">+</div>","null","html-keyboard-response","48","59421","0.0-6.0-0.21","RHGA","2","f","rechts","19","","fixation","","","",""
"852","img/120_210.png","70","image-keyboard-response","49","60274","0.0-6.0-1.21","RHGA","2","f","rechts","19","","","object","f","120","true"
"null","<div style=""font-size:60px;"">+</div>","null","html-keyboard-response","50","60576","0.0-6.0-0.22","RHGA","2","f","rechts","19","","fixation","","","",""
"703","img/0_120.png","74","image-keyboard-response","51","61280","0.0-6.0-1.22","RHGA","2","f","rechts","19","","","object","j","0","true"
"null","<div style=""font-size:60px;"">+</div>","null","html-keyboard-response","52","61631","0.0-6.0-0.23","RHGA","2","f","rechts","19","","fixation","","","",""
"767","img/L150_180.png","70","image-keyboard-response","53","62400","0.0-6.0-1.23","RHGA","2","f","rechts","19","","","object","j","150","false"
"null","<div style=""font-size:60px;"">+</div>","null","html-keyboard-response","54","62700","0.0-6.0-0.24","RHGA","2","f","rechts","19","","fixation","","","",""
"739","img/0_210.png","70","image-keyboard-response","55","63441","0.0-6.0-1.24","RHGA","2","f","rechts","19","","","object","f","0","true"
"null","<div style=""font-size:60px;"">+</div>","null","html-keyboard-response","56","63841","0.0-6.0-0.25","RHGA","2","f","rechts","19","","fixation","","","",""
"696","img/0_30.png","74","image-keyboard-response","57","64539","0.0-6.0-1.25","RHGA","2","f","rechts","19","","","object","j","0","true"
"null","<div style=""font-size:60px;"">+</div>","null","html-keyboard-response","58","64940","0.0-6.0-0.26","RHGA","2","f","rechts","19","","fixation","","","",""
"1182","img/60_30.png","74","image-keyboard-response","59","66124","0.0-6.0-1.26","RHGA","2","f","rechts","19","","","object","f","60","false"
"null","<div style=""font-size:60px;"">+</div>","null","html-keyboard-response","60","66425","0.0-6.0-0.27","RHGA","2","f","rechts","19","","fixation","","","",""
"798","img/0_150.png","74","image-keyboard-response","61","67225","0.0-6.0-1.27","RHGA","2","f","rechts","19","","","object","j","0","true"
"null","<div style=""font-size:60px;"">+</div>","null","html-keyboard-response","62","67625","0.0-6.0-0.28","RHGA","2","f","rechts","19","","fixation","","","",""
"708","img/60_330.png","70","image-keyboard-response","63","68334","0.0-6.0-1.28","RHGA","2","f","rechts","19","","","object","j","60","false"
"null","<div style=""font-size:60px;"">+</div>","null","html-keyboard-response","64","68835","0.0-6.0-0.29","RHGA","2","f","rechts","19","","fixation","","","",""
"606","img/0_90.png","74","image-keyboard-response","65","69442","0.0-6.0-1.29","RHGA","2","f","rechts","19","","","object","j","0","true"
"null","<div style=""font-size:60px;"">+</div>","null","html-keyboard-response","66","69894","0.0-6.0-0.30","RHGA","2","f","rechts","19","","fixation","","","",""
"713","img/150_240.png","70","image-keyboard-response","67","70608","0.0-6.0-1.30","RHGA","2","f","rechts","19","","","object","j","150","false"
"null","<div style=""font-size:60px;"">+</div>","null","html-keyboard-response","68","71010","0.0-6.0-0.31","RHGA","2","f","rechts","19","","fixation","","","",""
"851","img/90_60.png","74","image-keyboard-response","69","71862","0.0-6.0-1.31","RHGA","2","f","rechts","19","","","object","f","90","false"
"null","<div style=""font-size:60px;"">+</div>","null","html-keyboard-response","70","72263","0.0-6.0-0.32","RHGA","2","f","rechts","19","","fixation","","","",""
"696","img/30_60.png","74","image-keyboard-response","71","72960","0.0-6.0-1.32","RHGA","2","f","rechts","19","","","object","j","30","true"
"null","<div style=""font-size:60px;"">+</div>","null","html-keyboard-response","72","73411","0.0-6.0-0.33","RHGA","2","f","rechts","19","","fixation","","","",""
"887","img/120_330.png","70","image-keyboard-response","73","74300","0.0-6.0-1.33","RHGA","2","f","rechts","19","","","object","j","120","false"
"null","<div style=""font-size:60px;"">+</div>","null","html-keyboard-response","74","74801","0.0-6.0-0.34","RHGA","2","f","rechts","19","","fixation","","","",""
"753","img/0_240.png","70","image-keyboard-response","75","75555","0.0-6.0-1.34","RHGA","2","f","rechts","19","","","object","f","0","true"
"null","<div style=""font-size:60px;"">+</div>","null","html-keyboard-response","76","75856","0.0-6.0-0.35","RHGA","2","f","rechts","19","","fixation","","","",""
"629","img/0_300.png","70","image-keyboard-response","77","76486","0.0-6.0-1.35","RHGA","2","f","rechts","19","","","object","f","0","true"
"null","<div style=""font-size:60px;"">+</div>","null","html-keyboard-response","78","76988","0.0-6.0-0.36","RHGA","2","f","rechts","19","","fixation","","","",""
"751","img/150_180.png","74","image-keyboard-response","79","77740","0.0-6.0-1.36","RHGA","2","f","rechts","19","","","object","f","150","false"
"null","<div style=""font-size:60px;"">+</div>","null","html-keyboard-response","80","78091","0.0-6.0-0.37","RHGA","2","f","rechts","19","","fixation","","","",""
"795","img/150_90.png","70","image-keyboard-response","81","78887","0.0-6.0-1.37","RHGA","2","f","rechts","19","","","object","f","150","true"
"null","<div style=""font-size:60px;"">+</div>","null","html-keyboard-response","82","79189","0.0-6.0-0.38","RHGA","2","f","rechts","19","","fixation","","","",""
"880","img/L60_180.png","74","image-keyboard-response","83","80070","0.0-6.0-1.38","RHGA","2","f","rechts","19","","","object","j","60","true"
"null","<div style=""font-size:60px;"">+</div>","null","html-keyboard-response","84","80371","0.0-6.0-0.39","RHGA","2","f","rechts","19","","fixation","","","",""
"759","img/L30_180.png","74","image-keyboard-response","85","81131","0.0-6.0-1.39","RHGA","2","f","rechts","19","","","object","j","30","true"
"null","<div style=""font-size:60px;"">+</div>","null","html-keyboard-response","86","81482","0.0-6.0-0.40","RHGA","2","f","rechts","19","","fixation","","","",""
"928","img/120_150.png","70","image-keyboard-response","87","82411","0.0-6.0-1.40","RHGA","2","f","rechts","19","","","object","j","120","false"
"null","<div style=""font-size:60px;"">+</div>","null","html-keyboard-response","88","82813","0.0-6.0-0.41","RHGA","2","f","rechts","19","","fixation","","","",""
"1144","img/60_270.png","74","image-keyboard-response","89","83959","0.0-6.0-1.41","RHGA","2","f","rechts","19","","","object","f","60","false"
"null","<div style=""font-size:60px;"">+</div>","null","html-keyboard-response","90","84309","0.0-6.0-0.42","RHGA","2","f","rechts","19","","fixation","","","",""
"786","img/120_180.png","74","image-keyboard-response","91","85097","0.0-6.0-1.42","RHGA","2","f","rechts","19","","","object","f","120","false"
"null","<div style=""font-size:60px;"">+</div>","null","html-keyboard-response","92","85448","0.0-6.0-0.43","RHGA","2","f","rechts","19","","fixation","","","",""
"757","img/0_330.png","70","image-keyboard-response","93","86206","0.0-6.0-1.43","RHGA","2","f","rechts","19","","","object","f","0","true"
"null","<div style=""font-size:60px;"">+</div>","null","html-keyboard-response","94","86607","0.0-6.0-0.44","RHGA","2","f","rechts","19","","fixation","","","",""
"834","img/30_270.png","70","image-keyboard-response","95","87442","0.0-6.0-1.44","RHGA","2","f","rechts","19","","","object","f","30","true"
"null","<div style=""font-size:60px;"">+</div>","null","html-keyboard-response","96","87943","0.0-6.0-0.45","RHGA","2","f","rechts","19","","fixation","","","",""
"742","img/30_90.png","74","image-keyboard-response","97","88688","0.0-6.0-1.45","RHGA","2","f","rechts","19","","","object","j","30","true"
"null","<div style=""font-size:60px;"">+</div>","null","html-keyboard-response","98","89088","0.0-6.0-0.46","RHGA","2","f","rechts","19","","fixation","","","",""
"632","img/0_60.png","74","image-keyboard-response","99","89721","0.0-6.0-1.46","RHGA","2","f","rechts","19","","","object","j","0","true"
"null","<div style=""font-size:60px;"">+</div>","null","html-keyboard-response","100","90122","0.0-6.0-0.47","RHGA","2","f","rechts","19","","fixation","","","",""
"728","img/30_240.png","70","image-keyboard-response","101","90851","0.0-6.0-1.47","RHGA","2","f","rechts","19","","","object","f","30","true"
"null","<div style=""font-size:60px;"">+</div>","null","html-keyboard-response","102","91152","0.0-6.0-0.48","RHGA","2","f","rechts","19","","fixation","","","",""
"918","img/150_60.png","74","image-keyboard-response","103","92071","0.0-6.0-1.48","RHGA","2","f","rechts","19","","","object","f","150","false"
"null","<div style=""font-size:60px;"">+</div>","null","html-keyboard-response","104","92473","0.0-6.0-0.49","RHGA","2","f","rechts","19","","fixation","","","",""
"880","img/90_240.png","74","image-keyboard-response","105","93354","0.0-6.0-1.49","RHGA","2","f","rechts","19","","","object","f","90","false"
"null","<div style=""font-size:60px;"">+</div>","null","html-keyboard-response","106","93755","0.0-6.0-0.50","RHGA","2","f","rechts","19","","fixation","","","",""
"814","img/120_30.png","70","image-keyboard-response","107","94570","0.0-6.0-1.50","RHGA","2","f","rechts","19","","","object","f","120","true"
"null","<div style=""font-size:60px;"">+</div>","null","html-keyboard-response","108","94970","0.0-6.0-0.51","RHGA","2","f","rechts","19","","fixation","","","",""
"1077","img/90_330.png","70","image-keyboard-response","109","96048","0.0-6.0-1.51","RHGA","2","f","rechts","19","","","object","j","90","false"
"null","<div style=""font-size:60px;"">+</div>","null","html-keyboard-response","110","96349","0.0-6.0-0.52","RHGA","2","f","rechts","19","","fixation","","","",""
"699","img/90_240.png","70","image-keyboard-response","111","97048","0.0-6.0-1.52","RHGA","2","f","rechts","19","","","object","f","90","true"
"null","<div style=""font-size:60px;"">+</div>","null","html-keyboard-response","112","97499","0.0-6.0-0.53","RHGA","2","f","rechts","19","","fixation","","","",""
"657","img/90_120.png","74","image-keyboard-response","113","98157","0.0-6.0-1.53","RHGA","2","f","rechts","19","","","object","j","90","true"
"null","<div style=""font-size:60px;"">+</div>","null","html-keyboard-response","114","98459","0.0-6.0-0.54","RHGA","2","f","rechts","19","","fixation","","","",""
"673","img/30_60.png","74","image-keyboard-response","115","99133","0.0-6.0-1.54","RHGA","2","f","rechts","19","","","object","j","30","true"
"null","<div style=""font-size:60px;"">+</div>","null","html-keyboard-response","116","99483","0.0-6.0-0.55","RHGA","2","f","rechts","19","","fixation","","","",""
"677","img/90_30.png","74","image-keyboard-response","117","100161","0.0-6.0-1.55","RHGA","2","f","rechts","19","","","object","f","90","false"
"null","<div style=""font-size:60px;"">+</div>","null","html-keyboard-response","118","100663","0.0-6.0-0.56","RHGA","2","f","rechts","19","","fixation","","","",""
"770","img/60_210.png","70","image-keyboard-response","119","101433","0.0-6.0-1.56","RHGA","2","f","rechts","19","","","object","f","60","true"
"null","<div style=""font-size:60px;"">+</div>","null","html-keyboard-response","120","101934","0.0-6.0-0.57","RHGA","2","f","rechts","19","","fixation","","","",""
"529","img/90_150.png","74","image-keyboard-response","121","102464","0.0-6.0-1.57","RHGA","2","f","rechts","19","","","object","j","90","true"
"null","<div style=""font-size:60px;"">+</div>","null","html-keyboard-response","122","102764","0.0-6.0-0.58","RHGA","2","f","rechts","19","","fixation","","","",""
"687","img/90_180.png","74","image-keyboard-response","123","103453","0.0-6.0-1.58","RHGA","2","f","rechts","19","","","object","f","90","false"
"null","<div style=""font-size:60px;"">+</div>","null","html-keyboard-response","124","103853","0.0-6.0-0.59","RHGA","2","f","rechts","19","","fixation","","","",""
"604","img/90_60.png","74","image-keyboard-response","125","104458","0.0-6.0-1.59","RHGA","2","f","rechts","19","","","object","f","90","false"
"null","<div style=""font-size:60px;"">+</div>","null","html-keyboard-response","126","104859","0.0-6.0-0.60","RHGA","2","f","rechts","19","","fixation","","","",""
"617","img/0_30.png","74","image-keyboard-response","127","105477","0.0-6.0-1.60","RHGA","2","f","rechts","19","","","object","j","0","true"
"null","<div style=""font-size:60px;"">+</div>","null","html-keyboard-response","128","105977","0.0-6.0-0.61","RHGA","2","f","rechts","19","","fixation","","","",""
"630","img/0_300.png","70","image-keyboard-response","129","106609","0.0-6.0-1.61","RHGA","2","f","rechts","19","","","object","f","0","true"
"null","<div style=""font-size:60px;"">+</div>","null","html-keyboard-response","130","107009","0.0-6.0-0.62","RHGA","2","f","rechts","19","","fixation","","","",""
"647","img/L30_180.png","74","image-keyboard-response","131","107658","0.0-6.0-1.62","RHGA","2","f","rechts","19","","","object","j","30","true"
"null","<div style=""font-size:60px;"">+</div>","null","html-keyboard-response","132","107959","0.0-6.0-0.63","RHGA","2","f","rechts","19","","fixation","","","",""
"1190","img/60_150.png","74","image-keyboard-response","133","109150","0.0-6.0-1.63","RHGA","2","f","rechts","19","","","object","j","60","true"
"null","<div style=""font-size:60px;"">+</div>","null","html-keyboard-response","134","109501","0.0-6.0-0.64","RHGA","2","f","rechts","19","","fixation","","","",""
"736","img/L90_180.png","74","image-keyboard-response","135","110238","0.0-6.0-1.64","RHGA","2","f","rechts","19","","","object","j","90","true"
"null","<div style=""font-size:60px;"">+</div>","null","html-keyboard-response","136","110639","0.0-6.0-0.65","RHGA","2","f","rechts","19","","fixation","","","",""
"625","img/0_60.png","74","image-keyboard-response","137","111264","0.0-6.0-1.65","RHGA","2","f","rechts","19","","","object","j","0","true"
"null","<div style=""font-size:60px;"">+</div>","null","html-keyboard-response","138","111665","0.0-6.0-0.66","RHGA","2","f","rechts","19","","fixation","","","",""
"647","img/150_180.png","70","image-keyboard-response","139","112312","0.0-6.0-1.66","RHGA","2","f","rechts","19","","","object","f","150","true"
"null","<div style=""font-size:60px;"">+</div>","null","html-keyboard-response","140","112813","0.0-6.0-0.67","RHGA","2","f","rechts","19","","fixation","","","",""
"733","img/120_270.png","74","image-keyboard-response","141","113547","0.0-6.0-1.67","RHGA","2","f","rechts","19","","","object","j","120","true"
"null","<div style=""font-size:60px;"">+</div>","null","html-keyboard-response","142","113898","0.0-6.0-0.68","RHGA","2","f","rechts","19","","fixation","","","",""
"888","img/60_270.png","70","image-keyboard-response","143","114786","0.0-6.0-1.68","RHGA","2","f","rechts","19","","","object","f","60","true"
"null","<div style=""font-size:60px;"">+</div>","null","html-keyboard-response","144","115087","0.0-6.0-0.69","RHGA","2","f","rechts","19","","fixation","","","",""
"824","img/120_90.png","70","image-keyboard-response","145","115912","0.0-6.0-1.69","RHGA","2","f","rechts","19","","","object","f","120","true"
"null","<div style=""font-size:60px;"">+</div>","null","html-keyboard-response","146","116262","0.0-6.0-0.70","RHGA","2","f","rechts","19","","fixation","","","",""
"719","img/30_300.png","74","image-keyboard-response","147","116982","0.0-6.0-1.70","RHGA","2","f","rechts","19","","","object","f","30","false"
"null","<div style=""font-size:60px;"">+</div>","null","html-keyboard-response","148","117483","0.0-6.0-0.71","RHGA","2","f","rechts","19","","fixation","","","",""
"676","img/60_90.png","74","image-keyboard-response","149","118160","0.0-6.0-1.71","RHGA","2","f","rechts","19","","","object","j","60","true"
"null","<div style=""font-size:60px;"">+</div>","null","html-keyboard-response","150","118511","0.0-6.0-0.72","RHGA","2","f","rechts","19","","fixation","","","",""
"678","img/30_270.png","70","image-keyboard-response","151","119189","0.0-6.0-1.72","RHGA","2","f","rechts","19","","","object","f","30","true"
"null","<div style=""font-size:60px;"">+</div>","null","html-keyboard-response","152","119490","0.0-6.0-0.73","RHGA","2","f","rechts","19","","fixation","","","",""
"888","img/L150_180.png","70","image-keyboard-response","153","120378","0.0-6.0-1.73","RHGA","2","f","rechts","19","","","object","j","150","false"
"null","<div style=""font-size:60px;"">+</div>","null","html-keyboard-response","154","120729","0.0-6.0-0.74","RHGA","2","f","rechts","19","","fixation","","","",""
"646","img/0_120.png","74","image-keyboard-response","155","121375","0.0-6.0-1.74","RHGA","2","f","rechts","19","","","object","j","0","true"
"null","<div style=""font-size:60px;"">+</div>","null","html-keyboard-response","156","121827","0.0-6.0-0.75","RHGA","2","f","rechts","19","","fixation","","","",""
"850","img/150_270.png","70","image-keyboard-response","157","122677","0.0-6.0-1.75","RHGA","2","f","rechts","19","","","object","j","150","false"
"null","<div style=""font-size:60px;"">+</div>","null","html-keyboard-response","158","123129","0.0-6.0-0.76","RHGA","2","f","rechts","19","","fixation","","","",""
"645","img/150_60.png","74","image-keyboard-response","159","123774","0.0-6.0-1.76","RHGA","2","f","rechts","19","","","object","f","150","false"
"null","<div style=""font-size:60px;"">+</div>","null","html-keyboard-response","160","124275","0.0-6.0-0.77","RHGA","2","f","rechts","19","","fixation","","","",""
"761","img/90_210.png","70","image-keyboard-response","161","125036","0.0-6.0-1.77","RHGA","2","f","rechts","19","","","object","f","90","true"
"null","<div style=""font-size:60px;"">+</div>","null","html-keyboard-response","162","125337","0.0-6.0-0.78","RHGA","2","f","rechts","19","","fixation","","","",""
"715","img/120_150.png","70","image-keyboard-response","163","126052","0.0-6.0-1.78","RHGA","2","f","rechts","19","","","object","j","120","false"
"null","<div style=""font-size:60px;"">+</div>","null","html-keyboard-response","164","126504","0.0-6.0-0.79","RHGA","2","f","rechts","19","","fixation","","","",""
"657","img/120_330.png","74","image-keyboard-response","165","127161","0.0-6.0-1.79","RHGA","2","f","rechts","19","","","object","j","120","true"
"null","<div style=""font-size:60px;"">+</div>","null","html-keyboard-response","166","127462","0.0-6.0-0.80","RHGA","2","f","rechts","19","","fixation","","","",""
"997","img/150_240.png","70","image-keyboard-response","167","128459","0.0-6.0-1.80","RHGA","2","f","rechts","19","","","object","j","150","false"
"null","<div style=""font-size:60px;"">+</div>","null","html-keyboard-response","168","128760","0.0-6.0-0.81","RHGA","2","f","rechts","19","","fixation","","","",""
"833","img/120_180.png","74","image-keyboard-response","169","129595","0.0-6.0-1.81","RHGA","2","f","rechts","19","","","object","f","120","false"
"null","<div style=""font-size:60px;"">+</div>","null","html-keyboard-response","170","129996","0.0-6.0-0.82","RHGA","2","f","rechts","19","","fixation","","","",""
"606","img/0_330.png","70","image-keyboard-response","171","130602","0.0-6.0-1.82","RHGA","2","f","rechts","19","","","object","f","0","true"
"null","<div style=""font-size:60px;"">+</div>","null","html-keyboard-response","172","131054","0.0-6.0-0.83","RHGA","2","f","rechts","19","","fixation","","","",""
"863","img/150_90.png","70","image-keyboard-response","173","131917","0.0-6.0-1.83","RHGA","2","f","rechts","19","","","object","f","150","true"
"null","<div style=""font-size:60px;"">+</div>","null","html-keyboard-response","174","132268","0.0-6.0-0.84","RHGA","2","f","rechts","19","","fixation","","","",""
"857","img/120_210.png","74","image-keyboard-response","175","133125","0.0-6.0-1.84","RHGA","2","f","rechts","19","","","object","f","120","false"
"null","<div style=""font-size:60px;"">+</div>","null","html-keyboard-response","176","133575","0.0-6.0-0.85","RHGA","2","f","rechts","19","","fixation","","","",""
"778","img/30_120.png","74","image-keyboard-response","177","134354","0.0-6.0-1.85","RHGA","2","f","rechts","19","","","object","j","30","true"
"null","<div style=""font-size:60px;"">+</div>","null","html-keyboard-response","178","134654","0.0-6.0-0.86","RHGA","2","f","rechts","19","","fixation","","","",""
"810","img/0_150.png","74","image-keyboard-response","179","135465","0.0-6.0-1.86","RHGA","2","f","rechts","19","","","object","j","0","true"
"null","<div style=""font-size:60px;"">+</div>","null","html-keyboard-response","180","135966","0.0-6.0-0.87","RHGA","2","f","rechts","19","","fixation","","","",""
"626","img/0_270.png","70","image-keyboard-response","181","136592","0.0-6.0-1.87","RHGA","2","f","rechts","19","","","object","f","0","true"
"null","<div style=""font-size:60px;"">+</div>","null","html-keyboard-response","182","137042","0.0-6.0-0.88","RHGA","2","f","rechts","19","","fixation","","","",""
"835","img/60_30.png","74","image-keyboard-response","183","137878","0.0-6.0-1.88","RHGA","2","f","rechts","19","","","object","f","60","false"
"null","<div style=""font-size:60px;"">+</div>","null","html-keyboard-response","184","138279","0.0-6.0-0.89","RHGA","2","f","rechts","19","","fixation","","","",""
"585","img/30_240.png","70","image-keyboard-response","185","138864","0.0-6.0-1.89","RHGA","2","f","rechts","19","","","object","f","30","true"
"null","<div style=""font-size:60px;"">+</div>","null","html-keyboard-response","186","139166","0.0-6.0-0.90","RHGA","2","f","rechts","19","","fixation","","","",""
"596","img/30_90.png","74","image-keyboard-response","187","139763","0.0-6.0-1.90","RHGA","2","f","rechts","19","","","object","j","30","true"
"null","<div style=""font-size:60px;"">+</div>","null","html-keyboard-response","188","140163","0.0-6.0-0.91","RHGA","2","f","rechts","19","","fixation","","","",""
"839","img/90_300.png","74","image-keyboard-response","189","141004","0.0-6.0-1.91","RHGA","2","f","rechts","19","","","object","j","90","true"
"null","<div style=""font-size:60px;"">+</div>","null","html-keyboard-response","190","141505","0.0-6.0-0.92","RHGA","2","f","rechts","19","","fixation","","","",""
"763","img/L120_180.png","70","image-keyboard-response","191","142269","0.0-6.0-1.92","RHGA","2","f","rechts","19","","","object","j","120","false"
"null","<div style=""font-size:60px;"">+</div>","null","html-keyboard-response","192","142669","0.0-6.0-0.93","RHGA","2","f","rechts","19","","fixation","","","",""
"582","img/150_300.png","74","image-keyboard-response","193","143252","0.0-6.0-1.93","RHGA","2","f","rechts","19","","","object","j","150","true"
"null","<div style=""font-size:60px;"">+</div>","null","html-keyboard-response","194","143703","0.0-6.0-0.94","RHGA","2","f","rechts","19","","fixation","","","",""
"783","img/L60_180.png","74","image-keyboard-response","195","144487","0.0-6.0-1.94","RHGA","2","f","rechts","19","","","object","j","60","true"
"null","<div style=""font-size:60px;"">+</div>","null","html-keyboard-response","196","144788","0.0-6.0-0.95","RHGA","2","f","rechts","19","","fixation","","","",""
"872","img/0_210.png","70","image-keyboard-response","197","145661","0.0-6.0-1.95","RHGA","2","f","rechts","19","","","object","f","0","true"
"null","<div style=""font-size:60px;"">+</div>","null","html-keyboard-response","198","146162","0.0-6.0-0.96","RHGA","2","f","rechts","19","","fixation","","","",""
"806","img/30_180.png","70","image-keyboard-response","199","146969","0.0-6.0-1.96","RHGA","2","f","rechts","19","","","object","f","30","true"
"null","<div style=""font-size:60px;"">+</div>","null","html-keyboard-response","200","147320","0.0-6.0-0.97","RHGA","2","f","rechts","19","","fixation","","","",""
"873","img/60_330.png","70","image-keyboard-response","201","148193","0.0-6.0-1.97","RHGA","2","f","rechts","19","","","object","j","60","false"
"null","<div style=""font-size:60px;"">+</div>","null","html-keyboard-response","202","148643","0.0-6.0-0.98","RHGA","2","f","rechts","19","","fixation","","","",""
"724","img/60_180.png","70","image-keyboard-response","203","149369","0.0-6.0-1.98","RHGA","2","f","rechts","19","","","object","f","60","true"
"null","<div style=""font-size:60px;"">+</div>","null","html-keyboard-response","204","149819","0.0-6.0-0.99","RHGA","2","f","rechts","19","","fixation","","","",""
"699","img/0_90.png","74","image-keyboard-response","205","150519","0.0-6.0-1.99","RHGA","2","f","rechts","19","","","object","j","0","true"
"null","<div style=""font-size:60px;"">+</div>","null","html-keyboard-response","206","151020","0.0-6.0-0.100","RHGA","2","f","rechts","19","","fixation","","","",""
"624","img/0_240.png","70","image-keyboard-response","207","151646","0.0-6.0-1.100","RHGA","2","f","rechts","19","","","object","f","0","true"
"null","<div style=""font-size:60px;"">+</div>","null","html-keyboard-response","208","152097","0.0-6.0-0.101","RHGA","2","f","rechts","19","","fixation","","","",""
"770","img/150_120.png","70","image-keyboard-response","209","152867","0.0-6.0-1.101","RHGA","2","f","rechts","19","","","object","f","150","true"
"null","<div style=""font-size:60px;"">+</div>","null","html-keyboard-response","210","153167","0.0-6.0-0.102","RHGA","2","f","rechts","19","","fixation","","","",""
"833","img/120_30.png","74","image-keyboard-response","211","154002","0.0-6.0-1.102","RHGA","2","f","rechts","19","","","object","f","120","false"
"null","<div style=""font-size:60px;"">+</div>","null","html-keyboard-response","212","154302","0.0-6.0-0.103","RHGA","2","f","rechts","19","","fixation","","","",""
"840","img/90_330.png","74","image-keyboard-response","213","155143","0.0-6.0-1.103","RHGA","2","f","rechts","19","","","object","j","90","true"
"null","<div style=""font-size:60px;"">+</div>","null","html-keyboard-response","214","155594","0.0-6.0-0.104","RHGA","2","f","rechts","19","","fixation","","","",""
"699","img/90_180.png","74","image-keyboard-response","215","156294","0.0-6.0-1.104","RHGA","2","f","rechts","19","","","object","f","90","false"
"null","<div style=""font-size:60px;"">+</div>","null","html-keyboard-response","216","156595","0.0-6.0-0.105","RHGA","2","f","rechts","19","","fixation","","","",""
"688","img/L150_180.png","70","image-keyboard-response","217","157284","0.0-6.0-1.105","RHGA","2","f","rechts","19","","","object","j","150","false"
"null","<div style=""font-size:60px;"">+</div>","null","html-keyboard-response","218","157634","0.0-6.0-0.106","RHGA","2","f","rechts","19","","fixation","","","",""
"800","img/90_300.png","70","image-keyboard-response","219","158435","0.0-6.0-1.106","RHGA","2","f","rechts","19","","","object","j","90","false"
"null","<div style=""font-size:60px;"">+</div>","null","html-keyboard-response","220","158836","0.0-6.0-0.107","RHGA","2","f","rechts","19","","fixation","","","",""
"876","img/120_150.png","70","image-keyboard-response","221","159713","0.0-6.0-1.107","RHGA","2","f","rechts","19","","","object","j","120","false"
"null","<div style=""font-size:60px;"">+</div>","null","html-keyboard-response","222","160164","0.0-6.0-0.108","RHGA","2","f","rechts","19","","fixation","","","",""
"649","img/150_60.png","70","image-keyboard-response","223","160814","0.0-6.0-1.108","RHGA","2","f","rechts","19","","","object","f","150","true"
"null","<div style=""font-size:60px;"">+</div>","null","html-keyboard-response","224","161315","0.0-6.0-0.109","RHGA","2","f","rechts","19","","fixation","","","",""
"654","img/L30_180.png","74","image-keyboard-response","225","161970","0.0-6.0-1.109","RHGA","2","f","rechts","19","","","object","j","30","true"
"null","<div style=""font-size:60px;"">+</div>","null","html-keyboard-response","226","162322","0.0-6.0-0.110","RHGA","2","f","rechts","19","","fixation","","","",""
"764","img/0_300.png","70","image-keyboard-response","227","163086","0.0-6.0-1.110","RHGA","2","f","rechts","19","","","object","f","0","true"
"null","<div style=""font-size:60px;"">+</div>","null","html-keyboard-response","228","163487","0.0-6.0-0.111","RHGA","2","f","rechts","19","","fixation","","","",""
"630","img/0_270.png","70","image-keyboard-response","229","164117","0.0-6.0-1.111","RHGA","2","f","rechts","19","","","object","f","0","true"
"null","<div style=""font-size:60px;"">+</div>","null","html-keyboard-response","230","164468","0.0-6.0-0.112","RHGA","2","f","rechts","19","","fixation","","","",""
"921","img/120_180.png","70","image-keyboard-response","231","165390","0.0-6.0-1.112","RHGA","2","f","rechts","19","","","object","f","120","true"
"null","<div style=""font-size:60px;"">+</div>","null","html-keyboard-response","232","165692","0.0-6.0-0.113","RHGA","2","f","rechts","19","","fixation","","","",""
"648","img/90_330.png","74","image-keyboard-response","233","166340","0.0-6.0-1.113","RHGA","2","f","rechts","19","","","object","j","90","true"
"null","<div style=""font-size:60px;"">+</div>","null","html-keyboard-response","234","166791","0.0-6.0-0.114","RHGA","2","f","rechts","19","","fixation","","","",""
"689","img/0_60.png","74","image-keyboard-response","235","167482","0.0-6.0-1.114","RHGA","2","f","rechts","19","","","object","j","0","true"
"null","<div style=""font-size:60px;"">+</div>","null","html-keyboard-response","236","167833","0.0-6.0-0.115","RHGA","2","f","rechts","19","","fixation","","","",""
"649","img/0_90.png","74","image-keyboard-response","237","168484","0.0-6.0-1.115","RHGA","2","f","rechts","19","","","object","j","0","true"
"null","<div style=""font-size:60px;"">+</div>","null","html-keyboard-response","238","168984","0.0-6.0-0.116","RHGA","2","f","rechts","19","","fixation","","","",""
"859","img/L120_180.png","70","image-keyboard-response","239","169843","0.0-6.0-1.116","RHGA","2","f","rechts","19","","","object","j","120","false"
"null","<div style=""font-size:60px;"">+</div>","null","html-keyboard-response","240","170245","0.0-6.0-0.117","RHGA","2","f","rechts","19","","fixation","","","",""
"873","img/90_30.png","70","image-keyboard-response","241","171118","0.0-6.0-1.117","RHGA","2","f","rechts","19","","","object","f","90","true"
"null","<div style=""font-size:60px;"">+</div>","null","html-keyboard-response","242","171519","0.0-6.0-0.118","RHGA","2","f","rechts","19","","fixation","","","",""
"644","img/0_150.png","74","image-keyboard-response","243","172163","0.0-6.0-1.118","RHGA","2","f","rechts","19","","","object","j","0","true"
"null","<div style=""font-size:60px;"">+</div>","null","html-keyboard-response","244","172664","0.0-6.0-0.119","RHGA","2","f","rechts","19","","fixation","","","",""
"795","img/30_180.png","70","image-keyboard-response","245","173459","0.0-6.0-1.119","RHGA","2","f","rechts","19","","","object","f","30","true"
"null","<div style=""font-size:60px;"">+</div>","null","html-keyboard-response","246","173911","0.0-6.0-0.120","RHGA","2","f","rechts","19","","fixation","","","",""
"1064","img/120_90.png","70","image-keyboard-response","247","174976","0.0-6.0-1.120","RHGA","2","f","rechts","19","","","object","f","120","true"
"null","<div style=""font-size:60px;"">+</div>","null","html-keyboard-response","248","175427","0.0-6.0-0.121","RHGA","2","f","rechts","19","","fixation","","","",""
"624","img/30_90.png","74","image-keyboard-response","249","176051","0.0-6.0-1.121","RHGA","2","f","rechts","19","","","object","j","30","true"
"null","<div style=""font-size:60px;"">+</div>","null","html-keyboard-response","250","176452","0.0-6.0-0.122","RHGA","2","f","rechts","19","","fixation","","","",""
"710","img/90_240.png","70","image-keyboard-response","251","177163","0.0-6.0-1.122","RHGA","2","f","rechts","19","","","object","f","90","true"
"null","<div style=""font-size:60px;"">+</div>","null","html-keyboard-response","252","177563","0.0-6.0-0.123","RHGA","2","f","rechts","19","","fixation","","","",""
"692","img/120_30.png","70","image-keyboard-response","253","178256","0.0-6.0-1.123","RHGA","2","f","rechts","19","","","object","f","120","true"
"null","<div style=""font-size:60px;"">+</div>","null","html-keyboard-response","254","178756","0.0-6.0-0.124","RHGA","2","f","rechts","19","","fixation","","","",""
"624","img/90_60.png","70","image-keyboard-response","255","179381","0.0-6.0-1.124","RHGA","2","f","rechts","19","","","object","f","90","true"
"null","<div style=""font-size:60px;"">+</div>","null","html-keyboard-response","256","179732","0.0-6.0-0.125","RHGA","2","f","rechts","19","","fixation","","","",""
"553","img/0_120.png","74","image-keyboard-response","257","180286","0.0-6.0-1.125","RHGA","2","f","rechts","19","","","object","j","0","true"
"null","<div style=""font-size:60px;"">+</div>","null","html-keyboard-response","258","180737","0.0-6.0-0.126","RHGA","2","f","rechts","19","","fixation","","","",""
"715","img/90_150.png","70","image-keyboard-response","259","181452","0.0-6.0-1.126","RHGA","2","f","rechts","19","","","object","j","90","false"
"null","<div style=""font-size:60px;"">+</div>","null","html-keyboard-response","260","181803","0.0-6.0-0.127","RHGA","2","f","rechts","19","","fixation","","","",""
"804","img/150_270.png","74","image-keyboard-response","261","182609","0.0-6.0-1.127","RHGA","2","f","rechts","19","","","object","j","150","true"
"null","<div style=""font-size:60px;"">+</div>","null","html-keyboard-response","262","183009","0.0-6.0-0.128","RHGA","2","f","rechts","19","","fixation","","","",""
"837","img/60_30.png","74","image-keyboard-response","263","183848","0.0-6.0-1.128","RHGA","2","f","rechts","19","","","object","f","60","false"
"null","<div style=""font-size:60px;"">+</div>","null","html-keyboard-response","264","184199","0.0-6.0-0.129","RHGA","2","f","rechts","19","","fixation","","","",""
"784","img/60_90.png","70","image-keyboard-response","265","184984","0.0-6.0-1.129","RHGA","2","f","rechts","19","","","object","j","60","false"
"null","<div style=""font-size:60px;"">+</div>","null","html-keyboard-response","266","185285","0.0-6.0-0.130","RHGA","2","f","rechts","19","","fixation","","","",""
"1063","img/120_330.png","70","image-keyboard-response","267","186349","0.0-6.0-1.130","RHGA","2","f","rechts","19","","","object","j","120","false"
"null","<div style=""font-size:60px;"">+</div>","null","html-keyboard-response","268","186700","0.0-6.0-0.131","RHGA","2","f","rechts","19","","fixation","","","",""
"636","img/0_210.png","70","image-keyboard-response","269","187338","0.0-6.0-1.131","RHGA","2","f","rechts","19","","","object","f","0","true"
"null","<div style=""font-size:60px;"">+</div>","null","html-keyboard-response","270","187639","0.0-6.0-0.132","RHGA","2","f","rechts","19","","fixation","","","",""
"808","img/0_330.png","70","image-keyboard-response","271","188449","0.0-6.0-1.132","RHGA","2","f","rechts","19","","","object","f","0","true"
"null","<div style=""font-size:60px;"">+</div>","null","html-keyboard-response","272","188750","0.0-6.0-0.133","RHGA","2","f","rechts","19","","fixation","","","",""
"1068","img/120_210.png","70","image-keyboard-response","273","189818","0.0-6.0-1.133","RHGA","2","f","rechts","19","","","object","f","120","true"
"null","<div style=""font-size:60px;"">+</div>","null","html-keyboard-response","274","190119","0.0-6.0-0.134","RHGA","2","f","rechts","19","","fixation","","","",""
"727","img/0_30.png","74","image-keyboard-response","275","190847","0.0-6.0-1.134","RHGA","2","f","rechts","19","","","object","j","0","true"
"null","<div style=""font-size:60px;"">+</div>","null","html-keyboard-response","276","191198","0.0-6.0-0.135","RHGA","2","f","rechts","19","","fixation","","","",""
"1078","img/60_210.png","70","image-keyboard-response","277","192276","0.0-6.0-1.135","RHGA","2","f","rechts","19","","","object","f","60","true"
"null","<div style=""font-size:60px;"">+</div>","null","html-keyboard-response","278","192577","0.0-6.0-0.136","RHGA","2","f","rechts","19","","fixation","","","",""
"778","img/60_330.png","70","image-keyboard-response","279","193356","0.0-6.0-1.136","RHGA","2","f","rechts","19","","","object","j","60","false"
"null","<div style=""font-size:60px;"">+</div>","null","html-keyboard-response","280","193708","0.0-6.0-0.137","RHGA","2","f","rechts","19","","fixation","","","",""
"757","img/30_300.png","70","image-keyboard-response","281","194466","0.0-6.0-1.137","RHGA","2","f","rechts","19","","","object","f","30","true"
"null","<div style=""font-size:60px;"">+</div>","null","html-keyboard-response","282","194766","0.0-6.0-0.138","RHGA","2","f","rechts","19","","fixation","","","",""
"764","img/30_240.png","70","image-keyboard-response","283","195531","0.0-6.0-1.138","RHGA","2","f","rechts","19","","","object","f","30","true"
"null","<div style=""font-size:60px;"">+</div>","null","html-keyboard-response","284","196032","0.0-6.0-0.139","RHGA","2","f","rechts","19","","fixation","","","",""
"706","img/30_270.png","70","image-keyboard-response","285","196739","0.0-6.0-1.139","RHGA","2","f","rechts","19","","","object","f","30","true"
"null","<div style=""font-size:60px;"">+</div>","null","html-keyboard-response","286","197239","0.0-6.0-0.140","RHGA","2","f","rechts","19","","fixation","","","",""
"965","img/30_60.png","74","image-keyboard-response","287","198206","0.0-6.0-1.140","RHGA","2","f","rechts","19","","","object","j","30","true"
"null","<div style=""font-size:60px;"">+</div>","null","html-keyboard-response","288","198507","0.0-6.0-0.141","RHGA","2","f","rechts","19","","fixation","","","",""
"828","img/60_150.png","74","image-keyboard-response","289","199336","0.0-6.0-1.141","RHGA","2","f","rechts","19","","","object","j","60","true"
"null","<div style=""font-size:60px;"">+</div>","null","html-keyboard-response","290","199737","0.0-6.0-0.142","RHGA","2","f","rechts","19","","fixation","","","",""
"591","img/150_120.png","74","image-keyboard-response","291","200329","0.0-6.0-1.142","RHGA","2","f","rechts","19","","","object","f","150","false"
"null","<div style=""font-size:60px;"">+</div>","null","html-keyboard-response","292","200631","0.0-6.0-0.143","RHGA","2","f","rechts","19","","fixation","","","",""
"689","img/30_120.png","74","image-keyboard-response","293","201321","0.0-6.0-1.143","RHGA","2","f","rechts","19","","","object","j","30","true"
"null","<div style=""font-size:60px;"">+</div>","null","html-keyboard-response","294","201673","0.0-6.0-0.144","RHGA","2","f","rechts","19","","fixation","","","",""
"782","img/L90_180.png","70","image-keyboard-response","295","202457","0.0-6.0-1.144","RHGA","2","f","rechts","19","","","object","j","90","false"
"null","<div style=""font-size:60px;"">+</div>","null","html-keyboard-response","296","202957","0.0-6.0-0.145","RHGA","2","f","rechts","19","","fixation","","","",""
"1070","img/90_210.png","74","image-keyboard-response","297","204028","0.0-6.0-1.145","RHGA","2","f","rechts","19","","","object","f","90","false"
"null","<div style=""font-size:60px;"">+</div>","null","html-keyboard-response","298","204480","0.0-6.0-0.146","RHGA","2","f","rechts","19","","fixation","","","",""
"654","img/90_120.png","70","image-keyboard-response","299","205135","0.0-6.0-1.146","RHGA","2","f","rechts","19","","","object","j","90","false"
"null","<div style=""font-size:60px;"">+</div>","null","html-keyboard-response","300","205587","0.0-6.0-0.147","RHGA","2","f","rechts","19","","fixation","","","",""
"743","img/120_270.png","74","image-keyboard-response","301","206330","0.0-6.0-1.147","RHGA","2","f","rechts","19","","","object","j","120","true"
"null","<div style=""font-size:60px;"">+</div>","null","html-keyboard-response","302","206732","0.0-6.0-0.148","RHGA","2","f","rechts","19","","fixation","","","",""
"606","img/150_300.png","74","image-keyboard-response","303","207338","0.0-6.0-1.148","RHGA","2","f","rechts","19","","","object","j","150","true"
"null","<div style=""font-size:60px;"">+</div>","null","html-keyboard-response","304","207839","0.0-6.0-0.149","RHGA","2","f","rechts","19","","fixation","","","",""
"628","img/60_270.png","70","image-keyboard-response","305","208467","0.0-6.0-1.149","RHGA","2","f","rechts","19","","","object","f","60","true"
"null","<div style=""font-size:60px;"">+</div>","null","html-keyboard-response","306","208818","0.0-6.0-0.150","RHGA","2","f","rechts","19","","fixation","","","",""
"904","img/150_90.png","70","image-keyboard-response","307","209723","0.0-6.0-1.150","RHGA","2","f","rechts","19","","","object","f","150","true"
"null","<div style=""font-size:60px;"">+</div>","null","html-keyboard-response","308","210125","0.0-6.0-0.151","RHGA","2","f","rechts","19","","fixation","","","",""
"765","img/150_240.png","74","image-keyboard-response","309","210891","0.0-6.0-1.151","RHGA","2","f","rechts","19","","","object","j","150","true"
"null","<div style=""font-size:60px;"">+</div>","null","html-keyboard-response","310","211242","0.0-6.0-0.152","RHGA","2","f","rechts","19","","fixation","","","",""
"700","img/0_240.png","70","image-keyboard-response","311","211943","0.0-6.0-1.152","RHGA","2","f","rechts","19","","","object","f","0","true"
"null","<div style=""font-size:60px;"">+</div>","null","html-keyboard-response","312","212245","0.0-6.0-0.153","RHGA","2","f","rechts","19","","fixation","","","",""
"777","img/60_180.png","74","image-keyboard-response","313","213023","0.0-6.0-1.153","RHGA","2","f","rechts","19","","","object","f","60","false"
"null","<div style=""font-size:60px;"">+</div>","null","html-keyboard-response","314","213424","0.0-6.0-0.154","RHGA","2","f","rechts","19","","fixation","","","",""
"585","img/L60_180.png","70","image-keyboard-response","315","214009","0.0-6.0-1.154","RHGA","2","f","rechts","19","","","object","j","60","false"
"null","<div style=""font-size:60px;"">+</div>","null","html-keyboard-response","316","214510","0.0-6.0-0.155","RHGA","2","f","rechts","19","","fixation","","","",""
"644","img/150_180.png","74","image-keyboard-response","317","215155","0.0-6.0-1.155","RHGA","2","f","rechts","19","","","object","f","150","false"
"null","<div style=""font-size:60px;"">+</div>","null","html-keyboard-response","318","215606","0.0-6.0-0.156","RHGA","2","f","rechts","19","","fixation","","","",""
"645","img/0_330.png","70","image-keyboard-response","319","216251","0.0-6.0-1.156","RHGA","2","f","rechts","19","","","object","f","0","true"
"null","<div style=""font-size:60px;"">+</div>","null","html-keyboard-response","320","216752","0.0-6.0-0.157","RHGA","2","f","rechts","19","","fixation","","","",""
"841","img/90_60.png","70","image-keyboard-response","321","217593","0.0-6.0-1.157","RHGA","2","f","rechts","19","","","object","f","90","true"
"null","<div style=""font-size:60px;"">+</div>","null","html-keyboard-response","322","217894","0.0-6.0-0.158","RHGA","2","f","rechts","19","","fixation","","","",""
"898","img/L60_180.png","70","image-keyboard-response","323","218793","0.0-6.0-1.158","RHGA","2","f","rechts","19","","","object","j","60","false"
"null","<div style=""font-size:60px;"">+</div>","null","html-keyboard-response","324","219144","0.0-6.0-0.159","RHGA","2","f","rechts","19","","fixation","","","",""
"686","img/0_150.png","74","image-keyboard-response","325","219831","0.0-6.0-1.159","RHGA","2","f","rechts","19","","","object","j","0","true"
"null","<div style=""font-size:60px;"">+</div>","null","html-keyboard-response","326","220233","0.0-6.0-0.160","RHGA","2","f","rechts","19","","fixation","","","",""
"652","img/30_270.png","70","image-keyboard-response","327","220886","0.0-6.0-1.160","RHGA","2","f","rechts","19","","","object","f","30","true"
"null","<div style=""font-size:60px;"">+</div>","null","html-keyboard-response","328","221187","0.0-6.0-0.161","RHGA","2","f","rechts","19","","fixation","","","",""
"1167","img/90_150.png","70","image-keyboard-response","329","222356","0.0-6.0-1.161","RHGA","2","f","rechts","19","","","object","j","90","false"
"null","<div style=""font-size:60px;"">+</div>","null","html-keyboard-response","330","222807","0.0-6.0-0.162","RHGA","2","f","rechts","19","","fixation","","","",""
"725","img/90_180.png","70","image-keyboard-response","331","223533","0.0-6.0-1.162","RHGA","2","f","rechts","19","","","object","f","90","true"
"null","<div style=""font-size:60px;"">+</div>","null","html-keyboard-response","332","223985","0.0-6.0-0.163","RHGA","2","f","rechts","19","","fixation","","","",""
"660","img/60_270.png","70","image-keyboard-response","333","224647","0.0-6.0-1.163","RHGA","2","f","rechts","19","","","object","f","60","true"
"null","<div style=""font-size:60px;"">+</div>","null","html-keyboard-response","334","225098","0.0-6.0-0.164","RHGA","2","f","rechts","19","","fixation","","","",""
"634","img/30_90.png","74","image-keyboard-response","335","225733","0.0-6.0-1.164","RHGA","2","f","rechts","19","","","object","j","30","true"
"null","<div style=""font-size:60px;"">+</div>","null","html-keyboard-response","336","226035","0.0-6.0-0.165","RHGA","2","f","rechts","19","","fixation","","","",""
"737","img/0_120.png","74","image-keyboard-response","337","226773","0.0-6.0-1.165","RHGA","2","f","rechts","19","","","object","j","0","true"
"null","<div style=""font-size:60px;"">+</div>","null","html-keyboard-response","338","227175","0.0-6.0-0.166","RHGA","2","f","rechts","19","","fixation","","","",""
"693","img/150_270.png","70","image-keyboard-response","339","227870","0.0-6.0-1.166","RHGA","2","f","rechts","19","","","object","j","150","false"
"null","<div style=""font-size:60px;"">+</div>","null","html-keyboard-response","340","228321","0.0-6.0-0.167","RHGA","2","f","rechts","19","","fixation","","","",""
"687","img/150_60.png","70","image-keyboard-response","341","229009","0.0-6.0-1.167","RHGA","2","f","rechts","19","","","object","f","150","true"
"null","<div style=""font-size:60px;"">+</div>","null","html-keyboard-response","342","229410","0.0-6.0-0.168","RHGA","2","f","rechts","19","","fixation","","","",""
"729","img/60_330.png","70","image-keyboard-response","343","230139","0.0-6.0-1.168","RHGA","2","f","rechts","19","","","object","j","60","false"
"null","<div style=""font-size:60px;"">+</div>","null","html-keyboard-response","344","230640","0.0-6.0-0.169","RHGA","2","f","rechts","19","","fixation","","","",""
"660","img/30_300.png","70","image-keyboard-response","345","231300","0.0-6.0-1.169","RHGA","2","f","rechts","19","","","object","f","30","true"
"null","<div style=""font-size:60px;"">+</div>","null","html-keyboard-response","346","231651","0.0-6.0-0.170","RHGA","2","f","rechts","19","","fixation","","","",""
"765","img/60_180.png","70","image-keyboard-response","347","232416","0.0-6.0-1.170","RHGA","2","f","rechts","19","","","object","f","60","true"
"null","<div style=""font-size:60px;"">+</div>","null","html-keyboard-response","348","232816","0.0-6.0-0.171","RHGA","2","f","rechts","19","","fixation","","","",""
"817","img/150_180.png","74","image-keyboard-response","349","233634","0.0-6.0-1.171","RHGA","2","f","rechts","19","","","object","f","150","false"
"null","<div style=""font-size:60px;"">+</div>","null","html-keyboard-response","350","233985","0.0-6.0-0.172","RHGA","2","f","rechts","19","","fixation","","","",""
"639","img/30_120.png","74","image-keyboard-response","351","234626","0.0-6.0-1.172","RHGA","2","f","rechts","19","","","object","j","30","true"
"null","<div style=""font-size:60px;"">+</div>","null","html-keyboard-response","352","235077","0.0-6.0-0.173","RHGA","2","f","rechts","19","","fixation","","","",""
"717","img/60_30.png","74","image-keyboard-response","353","235794","0.0-6.0-1.173","RHGA","2","f","rechts","19","","","object","f","60","false"
"null","<div style=""font-size:60px;"">+</div>","null","html-keyboard-response","354","236095","0.0-6.0-0.174","RHGA","2","f","rechts","19","","fixation","","","",""
"935","img/120_150.png","70","image-keyboard-response","355","237031","0.0-6.0-1.174","RHGA","2","f","rechts","19","","","object","j","120","false"
"null","<div style=""font-size:60px;"">+</div>","null","html-keyboard-response","356","237531","0.0-6.0-0.175","RHGA","2","f","rechts","19","","fixation","","","",""
"697","img/90_240.png","74","image-keyboard-response","357","238230","0.0-6.0-1.175","RHGA","2","f","rechts","19","","","object","f","90","false"
"null","<div style=""font-size:60px;"">+</div>","null","html-keyboard-response","358","238630","0.0-6.0-0.176","RHGA","2","f","rechts","19","","fixation","","","",""
"633","img/L90_180.png","70","image-keyboard-response","359","239264","0.0-6.0-1.176","RHGA","2","f","rechts","19","","","object","j","90","false"
"null","<div style=""font-size:60px;"">+</div>","null","html-keyboard-response","360","239615","0.0-6.0-0.177","RHGA","2","f","rechts","19","","fixation","","","",""
"899","img/90_300.png","70","image-keyboard-response","361","240516","0.0-6.0-1.177","RHGA","2","f","rechts","19","","","object","j","90","false"
"null","<div style=""font-size:60px;"">+</div>","null","html-keyboard-response","362","241017","0.0-6.0-0.178","RHGA","2","f","rechts","19","","fixation","","","",""
"920","img/120_330.png","74","image-keyboard-response","363","241939","0.0-6.0-1.178","RHGA","2","f","rechts","19","","","object","j","120","true"
"null","<div style=""font-size:60px;"">+</div>","null","html-keyboard-response","364","242440","0.0-6.0-0.179","RHGA","2","f","rechts","19","","fixation","","","",""
"842","img/150_120.png","70","image-keyboard-response","365","243283","0.0-6.0-1.179","RHGA","2","f","rechts","19","","","object","f","150","true"
"null","<div style=""font-size:60px;"">+</div>","null","html-keyboard-response","366","243684","0.0-6.0-0.180","RHGA","2","f","rechts","19","","fixation","","","",""
"695","img/0_240.png","70","image-keyboard-response","367","244380","0.0-6.0-1.180","RHGA","2","f","rechts","19","","","object","f","0","true"
"null","<div style=""font-size:60px;"">+</div>","null","html-keyboard-response","368","244831","0.0-6.0-0.181","RHGA","2","f","rechts","19","","fixation","","","",""
"886","img/120_30.png","70","image-keyboard-response","369","245718","0.0-6.0-1.181","RHGA","2","f","rechts","19","","","object","f","120","true"
"null","<div style=""font-size:60px;"">+</div>","null","html-keyboard-response","370","246019","0.0-6.0-0.182","RHGA","2","f","rechts","19","","fixation","","","",""
"689","img/L30_180.png","70","image-keyboard-response","371","246709","0.0-6.0-1.182","RHGA","2","f","rechts","19","","","object","j","30","false"
"null","<div style=""font-size:60px;"">+</div>","null","html-keyboard-response","372","247210","0.0-6.0-0.183","RHGA","2","f","rechts","19","","fixation","","","",""
"716","img/90_30.png","74","image-keyboard-response","373","247927","0.0-6.0-1.183","RHGA","2","f","rechts","19","","","object","f","90","false"
"null","<div style=""font-size:60px;"">+</div>","null","html-keyboard-response","374","248328","0.0-6.0-0.184","RHGA","2","f","rechts","19","","fixation","","","",""
"739","img/150_240.png","74","image-keyboard-response","375","249068","0.0-6.0-1.184","RHGA","2","f","rechts","19","","","object","j","150","true"
"null","<div style=""font-size:60px;"">+</div>","null","html-keyboard-response","376","249469","0.0-6.0-0.185","RHGA","2","f","rechts","19","","fixation","","","",""
"758","img/0_30.png","74","image-keyboard-response","377","250228","0.0-6.0-1.185","RHGA","2","f","rechts","19","","","object","j","0","true"
"null","<div style=""font-size:60px;"">+</div>","null","html-keyboard-response","378","250729","0.0-6.0-0.186","RHGA","2","f","rechts","19","","fixation","","","",""
"843","img/60_90.png","74","image-keyboard-response","379","251572","0.0-6.0-1.186","RHGA","2","f","rechts","19","","","object","j","60","true"
"null","<div style=""font-size:60px;"">+</div>","null","html-keyboard-response","380","251873","0.0-6.0-0.187","RHGA","2","f","rechts","19","","fixation","","","",""
"637","img/60_150.png","74","image-keyboard-response","381","252511","0.0-6.0-1.187","RHGA","2","f","rechts","19","","","object","j","60","true"
"null","<div style=""font-size:60px;"">+</div>","null","html-keyboard-response","382","252812","0.0-6.0-0.188","RHGA","2","f","rechts","19","","fixation","","","",""
"955","img/120_270.png","74","image-keyboard-response","383","253768","0.0-6.0-1.188","RHGA","2","f","rechts","19","","","object","j","120","true"
"null","<div style=""font-size:60px;"">+</div>","null","html-keyboard-response","384","254070","0.0-6.0-0.189","RHGA","2","f","rechts","19","","fixation","","","",""
"863","img/90_120.png","70","image-keyboard-response","385","254934","0.0-6.0-1.189","RHGA","2","f","rechts","19","","","object","j","90","false"
"null","<div style=""font-size:60px;"">+</div>","null","html-keyboard-response","386","255235","0.0-6.0-0.190","RHGA","2","f","rechts","19","","fixation","","","",""
"719","img/90_210.png","74","image-keyboard-response","387","255955","0.0-6.0-1.190","RHGA","2","f","rechts","19","","","object","f","90","false"
"null","<div style=""font-size:60px;"">+</div>","null","html-keyboard-response","388","256256","0.0-6.0-0.191","RHGA","2","f","rechts","19","","fixation","","","",""
"649","img/120_210.png","74","image-keyboard-response","389","256905","0.0-6.0-1.191","RHGA","2","f","rechts","19","","","object","f","120","false"
"null","<div style=""font-size:60px;"">+</div>","null","html-keyboard-response","390","257207","0.0-6.0-0.192","RHGA","2","f","rechts","19","","fixation","","","",""
"953","img/30_180.png","70","image-keyboard-response","391","258162","0.0-6.0-1.192","RHGA","2","f","rechts","19","","","object","f","30","true"
"null","<div style=""font-size:60px;"">+</div>","null","html-keyboard-response","392","258463","0.0-6.0-0.193","RHGA","2","f","rechts","19","","fixation","","","",""
"975","img/L120_180.png","74","image-keyboard-response","393","259439","0.0-6.0-1.193","RHGA","2","f","rechts","19","","","object","j","120","true"
"null","<div style=""font-size:60px;"">+</div>","null","html-keyboard-response","394","259740","0.0-6.0-0.194","RHGA","2","f","rechts","19","","fixation","","","",""
"890","img/0_300.png","70","image-keyboard-response","395","260631","0.0-6.0-1.194","RHGA","2","f","rechts","19","","","object","f","0","true"
"null","<div style=""font-size:60px;"">+</div>","null","html-keyboard-response","396","260931","0.0-6.0-0.195","RHGA","2","f","rechts","19","","fixation","","","",""
"601","img/0_60.png","74","image-keyboard-response","397","261533","0.0-6.0-1.195","RHGA","2","f","rechts","19","","","object","j","0","true"
"null","<div style=""font-size:60px;"">+</div>","null","html-keyboard-response","398","261935","0.0-6.0-0.196","RHGA","2","f","rechts","19","","fixation","","","",""
"822","img/150_90.png","70","image-keyboard-response","399","262757","0.0-6.0-1.196","RHGA","2","f","rechts","19","","","object","f","150","true"
"null","<div style=""font-size:60px;"">+</div>","null","html-keyboard-response","400","263107","0.0-6.0-0.197","RHGA","2","f","rechts","19","","fixation","","","",""
"803","img/L150_180.png","70","image-keyboard-response","401","263911","0.0-6.0-1.197","RHGA","2","f","rechts","19","","","object","j","150","false"
"null","<div style=""font-size:60px;"">+</div>","null","html-keyboard-response","402","264213","0.0-6.0-0.198","RHGA","2","f","rechts","19","","fixation","","","",""
"772","img/30_240.png","70","image-keyboard-response","403","264987","0.0-6.0-1.198","RHGA","2","f","rechts","19","","","object","f","30","true"
"null","<div style=""font-size:60px;"">+</div>","null","html-keyboard-response","404","265288","0.0-6.0-0.199","RHGA","2","f","rechts","19","","fixation","","","",""
"931","img/90_330.png","74","image-keyboard-response","405","266220","0.0-6.0-1.199","RHGA","2","f","rechts","19","","","object","j","90","true"
"null","<div style=""font-size:60px;"">+</div>","null","html-keyboard-response","406","266571","0.0-6.0-0.200","RHGA","2","f","rechts","19","","fixation","","","",""
"703","img/60_210.png","70","image-keyboard-response","407","267276","0.0-6.0-1.200","RHGA","2","f","rechts","19","","","object","f","60","true"
"null","<div style=""font-size:60px;"">+</div>","null","html-keyboard-response","408","267577","0.0-6.0-0.201","RHGA","2","f","rechts","19","","fixation","","","",""
"905","img/120_90.png","74","image-keyboard-response","409","268484","0.0-6.0-1.201","RHGA","2","f","rechts","19","","","object","f","120","false"
"null","<div style=""font-size:60px;"">+</div>","null","html-keyboard-response","410","268934","0.0-6.0-0.202","RHGA","2","f","rechts","19","","fixation","","","",""
"712","img/0_210.png","70","image-keyboard-response","411","269648","0.0-6.0-1.202","RHGA","2","f","rechts","19","","","object","f","0","true"
"null","<div style=""font-size:60px;"">+</div>","null","html-keyboard-response","412","270049","0.0-6.0-0.203","RHGA","2","f","rechts","19","","fixation","","","",""
"1175","img/0_90.png","74","image-keyboard-response","413","271226","0.0-6.0-1.203","RHGA","2","f","rechts","19","","","object","j","0","true"
"null","<div style=""font-size:60px;"">+</div>","null","html-keyboard-response","414","271627","0.0-6.0-0.204","RHGA","2","f","rechts","19","","fixation","","","",""
"1236","img/150_300.png","74","image-keyboard-response","415","272864","0.0-6.0-1.204","RHGA","2","f","rechts","19","","","object","j","150","true"
"null","<div style=""font-size:60px;"">+</div>","null","html-keyboard-response","416","273315","0.0-6.0-0.205","RHGA","2","f","rechts","19","","fixation","","","",""
"1187","img/120_180.png","74","image-keyboard-response","417","274503","0.0-6.0-1.205","RHGA","2","f","rechts","19","","","object","f","120","false"
"null","<div style=""font-size:60px;"">+</div>","null","html-keyboard-response","418","274804","0.0-6.0-0.206","RHGA","2","f","rechts","19","","fixation","","","",""
"628","img/0_270.png","70","image-keyboard-response","419","275432","0.0-6.0-1.206","RHGA","2","f","rechts","19","","","object","f","0","true"
"null","<div style=""font-size:60px;"">+</div>","null","html-keyboard-response","420","275734","0.0-6.0-0.207","RHGA","2","f","rechts","19","","fixation","","","",""
"624","img/30_60.png","74","image-keyboard-response","421","276359","0.0-6.0-1.207","RHGA","2","f","rechts","19","","","object","j","30","true"
"6244","<p>Du hast in 64% der Versuche korrekt entschieden.</p><p>Deine durchschnittliche Reaktionszeit war  758ms.</p><p>Dr&uuml;cke eine beliebige Taste, um die Session zu beenden. Vielen Dank!</p>","70","html-keyboard-response","422","282605","0.0-7.0","RHGA","2","f","rechts","19","","","","","",""
