"rt","stimulus","key_press","trial_type","trial_index","time_elapsed","internal_node_id","subject","session","sex","handedness","age","responses","test_part","condition","correct_response","angle","correct"
"2067","<p>Mental Rotation Experiment.</p> <p>Dr&uuml;cke eine beliebige Taste, um anzufangen.</p>","71","html-keyboard-response","0","2071","0.0-0.0","RHGA","3","f","rechts","19","","","","","",""
"4504","","","survey-text","1","6576","0.0-1.0","RHGA","3","f","rechts","19","{""Q0"":""RHGA""}","","","","",""
"2429","","","survey-text","2","9006","0.0-2.0","RHGA","3","f","rechts","19","{""Q0"":""3""}","","","","",""
"4558","","","survey-multi-choice","3","13569","0.0-3.0","RHGA","3","f","rechts","19","{""Q0"":""f"",""Q1"":""rechts""}","","","","",""
"4190","","","survey-text","4","17760","0.0-4.0","RHGA","3","f","rechts","19","{""Q0"":""19""}","","","","",""
"20254","<p>Stell dir vor, dass du vor einem runden Tisch stehst, auf dem sich ein blauer Ball am Tischrand befindet. Entlang des Tischrands ist jeweils ein verschieden langer Pfeil. Nun bleibst du an deinem Platz vor dem Tisch und rotierst den Tisch entlang des Pfeils (gleiche Richtung und Länge). </p> <img src='img/30_180.png'></img> <br><p> Nachdem du diese (vorgestellte) Rotation durchgef&uuml;hrt hast, schau in Richtung der Tischmitte, und entscheide dann, ob der Ball links oder rechts von dir liegt.</p> <p>Dr&uuml;cke die <strong>'f'</strong>-Taste f&uuml;r links, die <strong>'j'</strong>-Taste f&uuml;r rechts.</p><br><p> Das Bild wird jeweils 1 Sekunde lang pr&auml;sentiert. Du hast 3 Sekunden Zeit eine Entscheidung zu treffen.</p>","74","html-keyboard-response","5","38015","0.0-5.0","RHGA","3","f","rechts","19","","","","","",""
"null","<div style=""font-size:60px;"">+</div>","null","html-keyboard-response","6","39368","0.0-6.0-0.0","RHGA","3","f","rechts","19","","fixation","","","",""
"776","img/90_210.png","74","image-keyboard-response","7","40146","0.0-6.0-1.0","RHGA","3","f","rechts","19","","","object","f","90","false"
"null","<div style=""font-size:60px;"">+</div>","null","html-keyboard-response","8","40447","0.0-6.0-0.1","RHGA","3","f","rechts","19","","fixation","","","",""
"675","img/120_90.png","70","image-keyboard-response","9","41122","0.0-6.0-1.1","RHGA","3","f","rechts","19","","","object","f","120","true"
"null","<div style=""font-size:60px;"">+</div>","null","html-keyboard-response","10","41623","0.0-6.0-0.2","RHGA","3","f","rechts","19","","fixation","","","",""
"692","img/0_210.png","70","image-keyboard-response","11","42317","0.0-6.0-1.2","RHGA","3","f","rechts","19","","","object","f","0","true"
"null","<div style=""font-size:60px;"">+</div>","null","html-keyboard-response","12","42617","0.0-6.0-0.3","RHGA","3","f","rechts","19","","fixation","","","",""
"680","img/150_300.png","74","image-keyboard-response","13","43298","0.0-6.0-1.3","RHGA","3","f","rechts","19","","","object","j","150","true"
"null","<div style=""font-size:60px;"">+</div>","null","html-keyboard-response","14","43649","0.0-6.0-0.4","RHGA","3","f","rechts","19","","fixation","","","",""
"856","img/90_300.png","74","image-keyboard-response","15","44507","0.0-6.0-1.4","RHGA","3","f","rechts","19","","","object","j","90","true"
"null","<div style=""font-size:60px;"">+</div>","null","html-keyboard-response","16","44908","0.0-6.0-0.5","RHGA","3","f","rechts","19","","fixation","","","",""
"751","img/L60_180.png","74","image-keyboard-response","17","45660","0.0-6.0-1.5","RHGA","3","f","rechts","19","","","object","j","60","true"
"null","<div style=""font-size:60px;"">+</div>","null","html-keyboard-response","18","46162","0.0-6.0-0.6","RHGA","3","f","rechts","19","","fixation","","","",""
"752","img/120_270.png","74","image-keyboard-response","19","46915","0.0-6.0-1.6","RHGA","3","f","rechts","19","","","object","j","120","true"
"null","<div style=""font-size:60px;"">+</div>","null","html-keyboard-response","20","47316","0.0-6.0-0.7","RHGA","3","f","rechts","19","","fixation","","","",""
"824","img/90_30.png","70","image-keyboard-response","21","48141","0.0-6.0-1.7","RHGA","3","f","rechts","19","","","object","f","90","true"
"null","<div style=""font-size:60px;"">+</div>","null","html-keyboard-response","22","48443","0.0-6.0-0.8","RHGA","3","f","rechts","19","","fixation","","","",""
"743","img/120_330.png","74","image-keyboard-response","23","49188","0.0-6.0-1.8","RHGA","3","f","rechts","19","","","object","j","120","true"
"null","<div style=""font-size:60px;"">+</div>","null","html-keyboard-response","24","49489","0.0-6.0-0.9","RHGA","3","f","rechts","19","","fixation","","","",""
"675","img/150_60.png","70","image-keyboard-response","25","50165","0.0-6.0-1.9","RHGA","3","f","rechts","19","","","object","f","150","true"
"null","<div style=""font-size:60px;"">+</div>","null","html-keyboard-response","26","50517","0.0-6.0-0.10","RHGA","3","f","rechts","19","","fixation","","","",""
"687","img/90_120.png","70","image-keyboard-response","27","51204","0.0-6.0-1.10","RHGA","3","f","rechts","19","","","object","j","90","false"
"null","<div style=""font-size:60px;"">+</div>","null","html-keyboard-response","28","51505","0.0-6.0-0.11","RHGA","3","f","rechts","19","","fixation","","","",""
"695","img/60_210.png","74","image-keyboard-response","29","52202","0.0-6.0-1.11","RHGA","3","f","rechts","19","","","object","f","60","false"
"null","<div style=""font-size:60px;"">+</div>","null","html-keyboard-response","30","52502","0.0-6.0-0.12","RHGA","3","f","rechts","19","","fixation","","","",""
"616","img/L150_180.png","70","image-keyboard-response","31","53120","0.0-6.0-1.12","RHGA","3","f","rechts","19","","","object","j","150","false"
"null","<div style=""font-size:60px;"">+</div>","null","html-keyboard-response","32","53421","0.0-6.0-0.13","RHGA","3","f","rechts","19","","fixation","","","",""
"549","img/30_120.png","74","image-keyboard-response","33","53971","0.0-6.0-1.13","RHGA","3","f","rechts","19","","","object","j","30","true"
"null","<div style=""font-size:60px;"">+</div>","null","html-keyboard-response","34","54272","0.0-6.0-0.14","RHGA","3","f","rechts","19","","fixation","","","",""
"577","img/60_180.png","70","image-keyboard-response","35","54851","0.0-6.0-1.14","RHGA","3","f","rechts","19","","","object","f","60","true"
"null","<div style=""font-size:60px;"">+</div>","null","html-keyboard-response","36","55252","0.0-6.0-0.15","RHGA","3","f","rechts","19","","fixation","","","",""
"472","img/0_90.png","74","image-keyboard-response","37","55725","0.0-6.0-1.15","RHGA","3","f","rechts","19","","","object","j","0","true"
"null","<div style=""font-size:60px;"">+</div>","null","html-keyboard-response","38","56177","0.0-6.0-0.16","RHGA","3","f","rechts","19","","fixation","","","",""
"807","img/120_210.png","70","image-keyboard-response","39","56984","0.0-6.0-1.16","RHGA","3","f","rechts","19","","","object","f","120","true"
"null","<div style=""font-size:60px;"">+</div>","null","html-keyboard-response","40","57336","0.0-6.0-0.17","RHGA","3","f","rechts","19","","fixation","","","",""
"765","img/120_30.png","74","image-keyboard-response","41","58102","0.0-6.0-1.17","RHGA","3","f","rechts","19","","","object","f","120","false"
"null","<div style=""font-size:60px;"">+</div>","null","html-keyboard-response","42","58554","0.0-6.0-0.18","RHGA","3","f","rechts","19","","fixation","","","",""
"775","img/30_300.png","70","image-keyboard-response","43","59331","0.0-6.0-1.18","RHGA","3","f","rechts","19","","","object","f","30","true"
"null","<div style=""font-size:60px;"">+</div>","null","html-keyboard-response","44","59782","0.0-6.0-0.19","RHGA","3","f","rechts","19","","fixation","","","",""
"893","img/90_180.png","74","image-keyboard-response","45","60676","0.0-6.0-1.19","RHGA","3","f","rechts","19","","","object","f","90","false"
"null","<div style=""font-size:60px;"">+</div>","null","html-keyboard-response","46","61027","0.0-6.0-0.20","RHGA","3","f","rechts","19","","fixation","","","",""
"741","img/30_240.png","74","image-keyboard-response","47","61769","0.0-6.0-1.20","RHGA","3","f","rechts","19","","","object","f","30","false"
"null","<div style=""font-size:60px;"">+</div>","null","html-keyboard-response","48","62070","0.0-6.0-0.21","RHGA","3","f","rechts","19","","fixation","","","",""
"872","img/150_120.png","74","image-keyboard-response","49","62943","0.0-6.0-1.21","RHGA","3","f","rechts","19","","","object","f","150","false"
"null","<div style=""font-size:60px;"">+</div>","null","html-keyboard-response","50","63445","0.0-6.0-0.22","RHGA","3","f","rechts","19","","fixation","","","",""
"707","img/0_30.png","74","image-keyboard-response","51","64152","0.0-6.0-1.22","RHGA","3","f","rechts","19","","","object","j","0","true"
"null","<div style=""font-size:60px;"">+</div>","null","html-keyboard-response","52","64553","0.0-6.0-0.23","RHGA","3","f","rechts","19","","fixation","","","",""
"805","img/L90_180.png","74","image-keyboard-response","53","65358","0.0-6.0-1.23","RHGA","3","f","rechts","19","","","object","j","90","true"
"null","<div style=""font-size:60px;"">+</div>","null","html-keyboard-response","54","65659","0.0-6.0-0.24","RHGA","3","f","rechts","19","","fixation","","","",""
"772","img/150_270.png","70","image-keyboard-response","55","66432","0.0-6.0-1.24","RHGA","3","f","rechts","19","","","object","j","150","false"
"null","<div style=""font-size:60px;"">+</div>","null","html-keyboard-response","56","66733","0.0-6.0-0.25","RHGA","3","f","rechts","19","","fixation","","","",""
"695","img/150_240.png","74","image-keyboard-response","57","67429","0.0-6.0-1.25","RHGA","3","f","rechts","19","","","object","j","150","true"
"null","<div style=""font-size:60px;"">+</div>","null","html-keyboard-response","58","67930","0.0-6.0-0.26","RHGA","3","f","rechts","19","","fixation","","","",""
"840","img/90_330.png","70","image-keyboard-response","59","68770","0.0-6.0-1.26","RHGA","3","f","rechts","19","","","object","j","90","false"
"null","<div style=""font-size:60px;"">+</div>","null","html-keyboard-response","60","69170","0.0-6.0-0.27","RHGA","3","f","rechts","19","","fixation","","","",""
"660","img/30_60.png","74","image-keyboard-response","61","69832","0.0-6.0-1.27","RHGA","3","f","rechts","19","","","object","j","30","true"
"null","<div style=""font-size:60px;"">+</div>","null","html-keyboard-response","62","70232","0.0-6.0-0.28","RHGA","3","f","rechts","19","","fixation","","","",""
"746","img/0_300.png","70","image-keyboard-response","63","70979","0.0-6.0-1.28","RHGA","3","f","rechts","19","","","object","f","0","true"
"null","<div style=""font-size:60px;"">+</div>","null","html-keyboard-response","64","71330","0.0-6.0-0.29","RHGA","3","f","rechts","19","","fixation","","","",""
"558","img/30_270.png","70","image-keyboard-response","65","71889","0.0-6.0-1.29","RHGA","3","f","rechts","19","","","object","f","30","true"
"null","<div style=""font-size:60px;"">+</div>","null","html-keyboard-response","66","72340","0.0-6.0-0.30","RHGA","3","f","rechts","19","","fixation","","","",""
"673","img/120_150.png","74","image-keyboard-response","67","73014","0.0-6.0-1.30","RHGA","3","f","rechts","19","","","object","j","120","true"
"null","<div style=""font-size:60px;"">+</div>","null","html-keyboard-response","68","73315","0.0-6.0-0.31","RHGA","3","f","rechts","19","","fixation","","","",""
"993","img/90_240.png","70","image-keyboard-response","69","74308","0.0-6.0-1.31","RHGA","3","f","rechts","19","","","object","f","90","true"
"null","<div style=""font-size:60px;"">+</div>","null","html-keyboard-response","70","74710","0.0-6.0-0.32","RHGA","3","f","rechts","19","","fixation","","","",""
"586","img/0_270.png","70","image-keyboard-response","71","75297","0.0-6.0-1.32","RHGA","3","f","rechts","19","","","object","f","0","true"
"null","<div style=""font-size:60px;"">+</div>","null","html-keyboard-response","72","75799","0.0-6.0-0.33","RHGA","3","f","rechts","19","","fixation","","","",""
"612","img/0_330.png","70","image-keyboard-response","73","76412","0.0-6.0-1.33","RHGA","3","f","rechts","19","","","object","f","0","true"
"null","<div style=""font-size:60px;"">+</div>","null","html-keyboard-response","74","76813","0.0-6.0-0.34","RHGA","3","f","rechts","19","","fixation","","","",""
"678","img/30_90.png","74","image-keyboard-response","75","77492","0.0-6.0-1.34","RHGA","3","f","rechts","19","","","object","j","30","true"
"null","<div style=""font-size:60px;"">+</div>","null","html-keyboard-response","76","77893","0.0-6.0-0.35","RHGA","3","f","rechts","19","","fixation","","","",""
"669","img/60_270.png","70","image-keyboard-response","77","78564","0.0-6.0-1.35","RHGA","3","f","rechts","19","","","object","f","60","true"
"null","<div style=""font-size:60px;"">+</div>","null","html-keyboard-response","78","79065","0.0-6.0-0.36","RHGA","3","f","rechts","19","","fixation","","","",""
"702","img/150_90.png","74","image-keyboard-response","79","79768","0.0-6.0-1.36","RHGA","3","f","rechts","19","","","object","f","150","false"
"null","<div style=""font-size:60px;"">+</div>","null","html-keyboard-response","80","80068","0.0-6.0-0.37","RHGA","3","f","rechts","19","","fixation","","","",""
"791","img/150_180.png","74","image-keyboard-response","81","80860","0.0-6.0-1.37","RHGA","3","f","rechts","19","","","object","f","150","false"
"null","<div style=""font-size:60px;"">+</div>","null","html-keyboard-response","82","81310","0.0-6.0-0.38","RHGA","3","f","rechts","19","","fixation","","","",""
"861","img/120_180.png","74","image-keyboard-response","83","82172","0.0-6.0-1.38","RHGA","3","f","rechts","19","","","object","f","120","false"
"null","<div style=""font-size:60px;"">+</div>","null","html-keyboard-response","84","82474","0.0-6.0-0.39","RHGA","3","f","rechts","19","","fixation","","","",""
"724","img/L30_180.png","74","image-keyboard-response","85","83200","0.0-6.0-1.39","RHGA","3","f","rechts","19","","","object","j","30","true"
"null","<div style=""font-size:60px;"">+</div>","null","html-keyboard-response","86","83700","0.0-6.0-0.40","RHGA","3","f","rechts","19","","fixation","","","",""
"706","img/0_120.png","74","image-keyboard-response","87","84408","0.0-6.0-1.40","RHGA","3","f","rechts","19","","","object","j","0","true"
"null","<div style=""font-size:60px;"">+</div>","null","html-keyboard-response","88","84808","0.0-6.0-0.41","RHGA","3","f","rechts","19","","fixation","","","",""
"678","img/30_180.png","70","image-keyboard-response","89","85488","0.0-6.0-1.41","RHGA","3","f","rechts","19","","","object","f","30","true"
"null","<div style=""font-size:60px;"">+</div>","null","html-keyboard-response","90","85839","0.0-6.0-0.42","RHGA","3","f","rechts","19","","fixation","","","",""
"644","img/60_150.png","74","image-keyboard-response","91","86485","0.0-6.0-1.42","RHGA","3","f","rechts","19","","","object","j","60","true"
"null","<div style=""font-size:60px;"">+</div>","null","html-keyboard-response","92","86836","0.0-6.0-0.43","RHGA","3","f","rechts","19","","fixation","","","",""
"619","img/60_330.png","70","image-keyboard-response","93","87459","0.0-6.0-1.43","RHGA","3","f","rechts","19","","","object","j","60","false"
"null","<div style=""font-size:60px;"">+</div>","null","html-keyboard-response","94","87810","0.0-6.0-0.44","RHGA","3","f","rechts","19","","fixation","","","",""
"623","img/60_90.png","74","image-keyboard-response","95","88435","0.0-6.0-1.44","RHGA","3","f","rechts","19","","","object","j","60","true"
"null","<div style=""font-size:60px;"">+</div>","null","html-keyboard-response","96","88935","0.0-6.0-0.45","RHGA","3","f","rechts","19","","fixation","","","",""
"577","img/90_60.png","74","image-keyboard-response","97","89514","0.0-6.0-1.45","RHGA","3","f","rechts","19","","","object","f","90","false"
"null","<div style=""font-size:60px;"">+</div>","null","html-keyboard-response","98","89814","0.0-6.0-0.46","RHGA","3","f","rechts","19","","fixation","","","",""
"603","img/60_30.png","74","image-keyboard-response","99","90419","0.0-6.0-1.46","RHGA","3","f","rechts","19","","","object","f","60","false"
"null","<div style=""font-size:60px;"">+</div>","null","html-keyboard-response","100","90919","0.0-6.0-0.47","RHGA","3","f","rechts","19","","fixation","","","",""
"647","img/0_240.png","70","image-keyboard-response","101","91567","0.0-6.0-1.47","RHGA","3","f","rechts","19","","","object","f","0","true"
"null","<div style=""font-size:60px;"">+</div>","null","html-keyboard-response","102","91919","0.0-6.0-0.48","RHGA","3","f","rechts","19","","fixation","","","",""
"596","img/90_150.png","74","image-keyboard-response","103","92516","0.0-6.0-1.48","RHGA","3","f","rechts","19","","","object","j","90","true"
"null","<div style=""font-size:60px;"">+</div>","null","html-keyboard-response","104","93017","0.0-6.0-0.49","RHGA","3","f","rechts","19","","fixation","","","",""
"607","img/0_150.png","74","image-keyboard-response","105","93626","0.0-6.0-1.49","RHGA","3","f","rechts","19","","","object","j","0","true"
"null","<div style=""font-size:60px;"">+</div>","null","html-keyboard-response","106","94027","0.0-6.0-0.50","RHGA","3","f","rechts","19","","fixation","","","",""
"606","img/0_60.png","74","image-keyboard-response","107","94634","0.0-6.0-1.50","RHGA","3","f","rechts","19","","","object","j","0","true"
"null","<div style=""font-size:60px;"">+</div>","null","html-keyboard-response","108","95085","0.0-6.0-0.51","RHGA","3","f","rechts","19","","fixation","","","",""
"668","img/L120_180.png","74","image-keyboard-response","109","95754","0.0-6.0-1.51","RHGA","3","f","rechts","19","","","object","j","120","true"
"null","<div style=""font-size:60px;"">+</div>","null","html-keyboard-response","110","96106","0.0-6.0-0.52","RHGA","3","f","rechts","19","","fixation","","","",""
"736","img/150_180.png","70","image-keyboard-response","111","96842","0.0-6.0-1.52","RHGA","3","f","rechts","19","","","object","f","150","true"
"null","<div style=""font-size:60px;"">+</div>","null","html-keyboard-response","112","97194","0.0-6.0-0.53","RHGA","3","f","rechts","19","","fixation","","","",""
"650","img/120_180.png","74","image-keyboard-response","113","97845","0.0-6.0-1.53","RHGA","3","f","rechts","19","","","object","f","120","false"
"null","<div style=""font-size:60px;"">+</div>","null","html-keyboard-response","114","98347","0.0-6.0-0.54","RHGA","3","f","rechts","19","","fixation","","","",""
"653","img/0_300.png","70","image-keyboard-response","115","99000","0.0-6.0-1.54","RHGA","3","f","rechts","19","","","object","f","0","true"
"null","<div style=""font-size:60px;"">+</div>","null","html-keyboard-response","116","99502","0.0-6.0-0.55","RHGA","3","f","rechts","19","","fixation","","","",""
"600","img/90_120.png","74","image-keyboard-response","117","100103","0.0-6.0-1.55","RHGA","3","f","rechts","19","","","object","j","90","true"
"null","<div style=""font-size:60px;"">+</div>","null","html-keyboard-response","118","100555","0.0-6.0-0.56","RHGA","3","f","rechts","19","","fixation","","","",""
"665","img/120_150.png","74","image-keyboard-response","119","101221","0.0-6.0-1.56","RHGA","3","f","rechts","19","","","object","j","120","true"
"null","<div style=""font-size:60px;"">+</div>","null","html-keyboard-response","120","101621","0.0-6.0-0.57","RHGA","3","f","rechts","19","","fixation","","","",""
"762","img/30_180.png","70","image-keyboard-response","121","102384","0.0-6.0-1.57","RHGA","3","f","rechts","19","","","object","f","30","true"
"null","<div style=""font-size:60px;"">+</div>","null","html-keyboard-response","122","102835","0.0-6.0-0.58","RHGA","3","f","rechts","19","","fixation","","","",""
"658","img/0_270.png","70","image-keyboard-response","123","103494","0.0-6.0-1.58","RHGA","3","f","rechts","19","","","object","f","0","true"
"null","<div style=""font-size:60px;"">+</div>","null","html-keyboard-response","124","103895","0.0-6.0-0.59","RHGA","3","f","rechts","19","","fixation","","","",""
"697","img/90_240.png","70","image-keyboard-response","125","104593","0.0-6.0-1.59","RHGA","3","f","rechts","19","","","object","f","90","true"
"null","<div style=""font-size:60px;"">+</div>","null","html-keyboard-response","126","105045","0.0-6.0-0.60","RHGA","3","f","rechts","19","","fixation","","","",""
"659","img/30_60.png","74","image-keyboard-response","127","105704","0.0-6.0-1.60","RHGA","3","f","rechts","19","","","object","j","30","true"
"null","<div style=""font-size:60px;"">+</div>","null","html-keyboard-response","128","106206","0.0-6.0-0.61","RHGA","3","f","rechts","19","","fixation","","","",""
"595","img/0_90.png","74","image-keyboard-response","129","106801","0.0-6.0-1.61","RHGA","3","f","rechts","19","","","object","j","0","true"
"null","<div style=""font-size:60px;"">+</div>","null","html-keyboard-response","130","107102","0.0-6.0-0.62","RHGA","3","f","rechts","19","","fixation","","","",""
"895","img/150_240.png","74","image-keyboard-response","131","107998","0.0-6.0-1.62","RHGA","3","f","rechts","19","","","object","j","150","true"
"null","<div style=""font-size:60px;"">+</div>","null","html-keyboard-response","132","108500","0.0-6.0-0.63","RHGA","3","f","rechts","19","","fixation","","","",""
"707","img/90_330.png","70","image-keyboard-response","133","109208","0.0-6.0-1.63","RHGA","3","f","rechts","19","","","object","j","90","false"
"null","<div style=""font-size:60px;"">+</div>","null","html-keyboard-response","134","109608","0.0-6.0-0.64","RHGA","3","f","rechts","19","","fixation","","","",""
"565","img/0_30.png","74","image-keyboard-response","135","110174","0.0-6.0-1.64","RHGA","3","f","rechts","19","","","object","j","0","true"
"null","<div style=""font-size:60px;"">+</div>","null","html-keyboard-response","136","110576","0.0-6.0-0.65","RHGA","3","f","rechts","19","","fixation","","","",""
"643","img/60_30.png","74","image-keyboard-response","137","111220","0.0-6.0-1.65","RHGA","3","f","rechts","19","","","object","f","60","false"
"null","<div style=""font-size:60px;"">+</div>","null","html-keyboard-response","138","111672","0.0-6.0-0.66","RHGA","3","f","rechts","19","","fixation","","","",""
"644","img/90_210.png","70","image-keyboard-response","139","112317","0.0-6.0-1.66","RHGA","3","f","rechts","19","","","object","f","90","true"
"null","<div style=""font-size:60px;"">+</div>","null","html-keyboard-response","140","112768","0.0-6.0-0.67","RHGA","3","f","rechts","19","","fixation","","","",""
"695","img/90_30.png","74","image-keyboard-response","141","113464","0.0-6.0-1.67","RHGA","3","f","rechts","19","","","object","f","90","false"
"null","<div style=""font-size:60px;"">+</div>","null","html-keyboard-response","142","113864","0.0-6.0-0.68","RHGA","3","f","rechts","19","","fixation","","","",""
"761","img/L150_180.png","70","image-keyboard-response","143","114626","0.0-6.0-1.68","RHGA","3","f","rechts","19","","","object","j","150","false"
"null","<div style=""font-size:60px;"">+</div>","null","html-keyboard-response","144","114927","0.0-6.0-0.69","RHGA","3","f","rechts","19","","fixation","","","",""
"707","img/90_150.png","74","image-keyboard-response","145","115634","0.0-6.0-1.69","RHGA","3","f","rechts","19","","","object","j","90","true"
"null","<div style=""font-size:60px;"">+</div>","null","html-keyboard-response","146","115935","0.0-6.0-0.70","RHGA","3","f","rechts","19","","fixation","","","",""
"726","img/0_150.png","74","image-keyboard-response","147","116662","0.0-6.0-1.70","RHGA","3","f","rechts","19","","","object","j","0","true"
"null","<div style=""font-size:60px;"">+</div>","null","html-keyboard-response","148","117164","0.0-6.0-0.71","RHGA","3","f","rechts","19","","fixation","","","",""
"688","img/90_180.png","70","image-keyboard-response","149","117852","0.0-6.0-1.71","RHGA","3","f","rechts","19","","","object","f","90","true"
"null","<div style=""font-size:60px;"">+</div>","null","html-keyboard-response","150","118254","0.0-6.0-0.72","RHGA","3","f","rechts","19","","fixation","","","",""
"723","img/60_180.png","74","image-keyboard-response","151","118977","0.0-6.0-1.72","RHGA","3","f","rechts","19","","","object","f","60","false"
"null","<div style=""font-size:60px;"">+</div>","null","html-keyboard-response","152","119478","0.0-6.0-0.73","RHGA","3","f","rechts","19","","fixation","","","",""
"568","img/30_300.png","70","image-keyboard-response","153","120047","0.0-6.0-1.73","RHGA","3","f","rechts","19","","","object","f","30","true"
"null","<div style=""font-size:60px;"">+</div>","null","html-keyboard-response","154","120497","0.0-6.0-0.74","RHGA","3","f","rechts","19","","fixation","","","",""
"796","img/150_60.png","74","image-keyboard-response","155","121295","0.0-6.0-1.74","RHGA","3","f","rechts","19","","","object","f","150","false"
"null","<div style=""font-size:60px;"">+</div>","null","html-keyboard-response","156","121646","0.0-6.0-0.75","RHGA","3","f","rechts","19","","fixation","","","",""
"651","img/30_120.png","74","image-keyboard-response","157","122298","0.0-6.0-1.75","RHGA","3","f","rechts","19","","","object","j","30","true"
"null","<div style=""font-size:60px;"">+</div>","null","html-keyboard-response","158","122649","0.0-6.0-0.76","RHGA","3","f","rechts","19","","fixation","","","",""
"753","img/L120_180.png","70","image-keyboard-response","159","123402","0.0-6.0-1.76","RHGA","3","f","rechts","19","","","object","j","120","false"
"null","<div style=""font-size:60px;"">+</div>","null","html-keyboard-response","160","123702","0.0-6.0-0.77","RHGA","3","f","rechts","19","","fixation","","","",""
"713","img/0_210.png","70","image-keyboard-response","161","124417","0.0-6.0-1.77","RHGA","3","f","rechts","19","","","object","f","0","true"
"null","<div style=""font-size:60px;"">+</div>","null","html-keyboard-response","162","124817","0.0-6.0-0.78","RHGA","3","f","rechts","19","","fixation","","","",""
"918","img/120_270.png","74","image-keyboard-response","163","125737","0.0-6.0-1.78","RHGA","3","f","rechts","19","","","object","j","120","true"
"null","<div style=""font-size:60px;"">+</div>","null","html-keyboard-response","164","126038","0.0-6.0-0.79","RHGA","3","f","rechts","19","","fixation","","","",""
"629","img/120_330.png","74","image-keyboard-response","165","126669","0.0-6.0-1.79","RHGA","3","f","rechts","19","","","object","j","120","true"
"null","<div style=""font-size:60px;"">+</div>","null","html-keyboard-response","166","127170","0.0-6.0-0.80","RHGA","3","f","rechts","19","","fixation","","","",""
"601","img/30_240.png","70","image-keyboard-response","167","127772","0.0-6.0-1.80","RHGA","3","f","rechts","19","","","object","f","30","true"
"null","<div style=""font-size:60px;"">+</div>","null","html-keyboard-response","168","128124","0.0-6.0-0.81","RHGA","3","f","rechts","19","","fixation","","","",""
"784","img/60_330.png","70","image-keyboard-response","169","128910","0.0-6.0-1.81","RHGA","3","f","rechts","19","","","object","j","60","false"
"null","<div style=""font-size:60px;"">+</div>","null","html-keyboard-response","170","129210","0.0-6.0-0.82","RHGA","3","f","rechts","19","","fixation","","","",""
"620","img/0_330.png","70","image-keyboard-response","171","129832","0.0-6.0-1.82","RHGA","3","f","rechts","19","","","object","f","0","true"
"null","<div style=""font-size:60px;"">+</div>","null","html-keyboard-response","172","130283","0.0-6.0-0.83","RHGA","3","f","rechts","19","","fixation","","","",""
"745","img/30_90.png","74","image-keyboard-response","173","131030","0.0-6.0-1.83","RHGA","3","f","rechts","19","","","object","j","30","true"
"null","<div style=""font-size:60px;"">+</div>","null","html-keyboard-response","174","131331","0.0-6.0-0.84","RHGA","3","f","rechts","19","","fixation","","","",""
"811","img/120_90.png","70","image-keyboard-response","175","132144","0.0-6.0-1.84","RHGA","3","f","rechts","19","","","object","f","120","true"
"null","<div style=""font-size:60px;"">+</div>","null","html-keyboard-response","176","132644","0.0-6.0-0.85","RHGA","3","f","rechts","19","","fixation","","","",""
"579","img/150_90.png","70","image-keyboard-response","177","133224","0.0-6.0-1.85","RHGA","3","f","rechts","19","","","object","f","150","true"
"null","<div style=""font-size:60px;"">+</div>","null","html-keyboard-response","178","133726","0.0-6.0-0.86","RHGA","3","f","rechts","19","","fixation","","","",""
"578","img/0_60.png","74","image-keyboard-response","179","134305","0.0-6.0-1.86","RHGA","3","f","rechts","19","","","object","j","0","true"
"null","<div style=""font-size:60px;"">+</div>","null","html-keyboard-response","180","134806","0.0-6.0-0.87","RHGA","3","f","rechts","19","","fixation","","","",""
"759","img/L30_180.png","74","image-keyboard-response","181","135566","0.0-6.0-1.87","RHGA","3","f","rechts","19","","","object","j","30","true"
"null","<div style=""font-size:60px;"">+</div>","null","html-keyboard-response","182","135916","0.0-6.0-0.88","RHGA","3","f","rechts","19","","fixation","","","",""
"944","img/0_240.png","70","image-keyboard-response","183","136861","0.0-6.0-1.88","RHGA","3","f","rechts","19","","","object","f","0","true"
"null","<div style=""font-size:60px;"">+</div>","null","html-keyboard-response","184","137212","0.0-6.0-0.89","RHGA","3","f","rechts","19","","fixation","","","",""
"727","img/L90_180.png","74","image-keyboard-response","185","137940","0.0-6.0-1.89","RHGA","3","f","rechts","19","","","object","j","90","true"
"null","<div style=""font-size:60px;"">+</div>","null","html-keyboard-response","186","138441","0.0-6.0-0.90","RHGA","3","f","rechts","19","","fixation","","","",""
"905","img/150_300.png","70","image-keyboard-response","187","139347","0.0-6.0-1.90","RHGA","3","f","rechts","19","","","object","j","150","false"
"null","<div style=""font-size:60px;"">+</div>","null","html-keyboard-response","188","139647","0.0-6.0-0.91","RHGA","3","f","rechts","19","","fixation","","","",""
"658","img/90_300.png","74","image-keyboard-response","189","140306","0.0-6.0-1.91","RHGA","3","f","rechts","19","","","object","j","90","true"
"null","<div style=""font-size:60px;"">+</div>","null","html-keyboard-response","190","140757","0.0-6.0-0.92","RHGA","3","f","rechts","19","","fixation","","","",""
"851","img/120_210.png","74","image-keyboard-response","191","141609","0.0-6.0-1.92","RHGA","3","f","rechts","19","","","object","f","120","false"
"null","<div style=""font-size:60px;"">+</div>","null","html-keyboard-response","192","141960","0.0-6.0-0.93","RHGA","3","f","rechts","19","","fixation","","","",""
"581","img/L60_180.png","74","image-keyboard-response","193","142542","0.0-6.0-1.93","RHGA","3","f","rechts","19","","","object","j","60","true"
"null","<div style=""font-size:60px;"">+</div>","null","html-keyboard-response","194","142893","0.0-6.0-0.94","RHGA","3","f","rechts","19","","fixation","","","",""
"675","img/60_90.png","74","image-keyboard-response","195","143568","0.0-6.0-1.94","RHGA","3","f","rechts","19","","","object","j","60","true"
"null","<div style=""font-size:60px;"">+</div>","null","html-keyboard-response","196","143869","0.0-6.0-0.95","RHGA","3","f","rechts","19","","fixation","","","",""
"819","img/150_270.png","74","image-keyboard-response","197","144688","0.0-6.0-1.95","RHGA","3","f","rechts","19","","","object","j","150","true"
"null","<div style=""font-size:60px;"">+</div>","null","html-keyboard-response","198","145139","0.0-6.0-0.96","RHGA","3","f","rechts","19","","fixation","","","",""
"730","img/0_120.png","74","image-keyboard-response","199","145869","0.0-6.0-1.96","RHGA","3","f","rechts","19","","","object","j","0","true"
"null","<div style=""font-size:60px;"">+</div>","null","html-keyboard-response","200","146270","0.0-6.0-0.97","RHGA","3","f","rechts","19","","fixation","","","",""
"695","img/30_270.png","70","image-keyboard-response","201","146965","0.0-6.0-1.97","RHGA","3","f","rechts","19","","","object","f","30","true"
"null","<div style=""font-size:60px;"">+</div>","null","html-keyboard-response","202","147366","0.0-6.0-0.98","RHGA","3","f","rechts","19","","fixation","","","",""
"825","img/150_120.png","70","image-keyboard-response","203","148191","0.0-6.0-1.98","RHGA","3","f","rechts","19","","","object","f","150","true"
"null","<div style=""font-size:60px;"">+</div>","null","html-keyboard-response","204","148593","0.0-6.0-0.99","RHGA","3","f","rechts","19","","fixation","","","",""
"952","img/60_150.png","70","image-keyboard-response","205","149545","0.0-6.0-1.99","RHGA","3","f","rechts","19","","","object","j","60","false"
"null","<div style=""font-size:60px;"">+</div>","null","html-keyboard-response","206","149896","0.0-6.0-0.100","RHGA","3","f","rechts","19","","fixation","","","",""
"740","img/60_210.png","70","image-keyboard-response","207","150636","0.0-6.0-1.100","RHGA","3","f","rechts","19","","","object","f","60","true"
"null","<div style=""font-size:60px;"">+</div>","null","html-keyboard-response","208","150987","0.0-6.0-0.101","RHGA","3","f","rechts","19","","fixation","","","",""
"631","img/90_60.png","74","image-keyboard-response","209","151618","0.0-6.0-1.101","RHGA","3","f","rechts","19","","","object","f","90","false"
"null","<div style=""font-size:60px;"">+</div>","null","html-keyboard-response","210","151919","0.0-6.0-0.102","RHGA","3","f","rechts","19","","fixation","","","",""
"710","img/60_270.png","70","image-keyboard-response","211","152630","0.0-6.0-1.102","RHGA","3","f","rechts","19","","","object","f","60","true"
"null","<div style=""font-size:60px;"">+</div>","null","html-keyboard-response","212","152931","0.0-6.0-0.103","RHGA","3","f","rechts","19","","fixation","","","",""
"949","img/120_30.png","74","image-keyboard-response","213","153881","0.0-6.0-1.103","RHGA","3","f","rechts","19","","","object","f","120","false"
"null","<div style=""font-size:60px;"">+</div>","null","html-keyboard-response","214","154282","0.0-6.0-0.104","RHGA","3","f","rechts","19","","fixation","","","",""
"814","img/90_150.png","70","image-keyboard-response","215","155096","0.0-6.0-1.104","RHGA","3","f","rechts","19","","","object","j","90","false"
"null","<div style=""font-size:60px;"">+</div>","null","html-keyboard-response","216","155597","0.0-6.0-0.105","RHGA","3","f","rechts","19","","fixation","","","",""
"712","img/L30_180.png","74","image-keyboard-response","217","156310","0.0-6.0-1.105","RHGA","3","f","rechts","19","","","object","j","30","true"
"null","<div style=""font-size:60px;"">+</div>","null","html-keyboard-response","218","156660","0.0-6.0-0.106","RHGA","3","f","rechts","19","","fixation","","","",""
"803","img/120_270.png","74","image-keyboard-response","219","157464","0.0-6.0-1.106","RHGA","3","f","rechts","19","","","object","j","120","true"
"null","<div style=""font-size:60px;"">+</div>","null","html-keyboard-response","220","157865","0.0-6.0-0.107","RHGA","3","f","rechts","19","","fixation","","","",""
"606","img/30_270.png","70","image-keyboard-response","221","158471","0.0-6.0-1.107","RHGA","3","f","rechts","19","","","object","f","30","true"
"null","<div style=""font-size:60px;"">+</div>","null","html-keyboard-response","222","158822","0.0-6.0-0.108","RHGA","3","f","rechts","19","","fixation","","","",""
"687","img/0_90.png","74","image-keyboard-response","223","159509","0.0-6.0-1.108","RHGA","3","f","rechts","19","","","object","j","0","true"
"null","<div style=""font-size:60px;"">+</div>","null","html-keyboard-response","224","159960","0.0-6.0-0.109","RHGA","3","f","rechts","19","","fixation","","","",""
"703","img/0_300.png","70","image-keyboard-response","225","160664","0.0-6.0-1.109","RHGA","3","f","rechts","19","","","object","f","0","true"
"null","<div style=""font-size:60px;"">+</div>","null","html-keyboard-response","226","161064","0.0-6.0-0.110","RHGA","3","f","rechts","19","","fixation","","","",""
"736","img/60_270.png","70","image-keyboard-response","227","161801","0.0-6.0-1.110","RHGA","3","f","rechts","19","","","object","f","60","true"
"null","<div style=""font-size:60px;"">+</div>","null","html-keyboard-response","228","162102","0.0-6.0-0.111","RHGA","3","f","rechts","19","","fixation","","","",""
"651","img/60_330.png","70","image-keyboard-response","229","162754","0.0-6.0-1.111","RHGA","3","f","rechts","19","","","object","j","60","false"
"null","<div style=""font-size:60px;"">+</div>","null","html-keyboard-response","230","163206","0.0-6.0-0.112","RHGA","3","f","rechts","19","","fixation","","","",""
"863","img/30_180.png","70","image-keyboard-response","231","164070","0.0-6.0-1.112","RHGA","3","f","rechts","19","","","object","f","30","true"
"null","<div style=""font-size:60px;"">+</div>","null","html-keyboard-response","232","164571","0.0-6.0-0.113","RHGA","3","f","rechts","19","","fixation","","","",""
"655","img/0_150.png","74","image-keyboard-response","233","165227","0.0-6.0-1.113","RHGA","3","f","rechts","19","","","object","j","0","true"
"null","<div style=""font-size:60px;"">+</div>","null","html-keyboard-response","234","165727","0.0-6.0-0.114","RHGA","3","f","rechts","19","","fixation","","","",""
"734","img/150_270.png","74","image-keyboard-response","235","166462","0.0-6.0-1.114","RHGA","3","f","rechts","19","","","object","j","150","true"
"null","<div style=""font-size:60px;"">+</div>","null","html-keyboard-response","236","166964","0.0-6.0-0.115","RHGA","3","f","rechts","19","","fixation","","","",""
"730","img/30_90.png","74","image-keyboard-response","237","167694","0.0-6.0-1.115","RHGA","3","f","rechts","19","","","object","j","30","true"
"null","<div style=""font-size:60px;"">+</div>","null","html-keyboard-response","238","168046","0.0-6.0-0.116","RHGA","3","f","rechts","19","","fixation","","","",""
"762","img/0_120.png","74","image-keyboard-response","239","168808","0.0-6.0-1.116","RHGA","3","f","rechts","19","","","object","j","0","true"
"null","<div style=""font-size:60px;"">+</div>","null","html-keyboard-response","240","169108","0.0-6.0-0.117","RHGA","3","f","rechts","19","","fixation","","","",""
"968","img/60_180.png","70","image-keyboard-response","241","170077","0.0-6.0-1.117","RHGA","3","f","rechts","19","","","object","f","60","true"
"null","<div style=""font-size:60px;"">+</div>","null","html-keyboard-response","242","170378","0.0-6.0-0.118","RHGA","3","f","rechts","19","","fixation","","","",""
"690","img/150_300.png","74","image-keyboard-response","243","171069","0.0-6.0-1.118","RHGA","3","f","rechts","19","","","object","j","150","true"
"null","<div style=""font-size:60px;"">+</div>","null","html-keyboard-response","244","171470","0.0-6.0-0.119","RHGA","3","f","rechts","19","","fixation","","","",""
"578","img/120_330.png","74","image-keyboard-response","245","172048","0.0-6.0-1.119","RHGA","3","f","rechts","19","","","object","j","120","true"
"null","<div style=""font-size:60px;"">+</div>","null","html-keyboard-response","246","172449","0.0-6.0-0.120","RHGA","3","f","rechts","19","","fixation","","","",""
"602","img/150_180.png","74","image-keyboard-response","247","173052","0.0-6.0-1.120","RHGA","3","f","rechts","19","","","object","f","150","false"
"null","<div style=""font-size:60px;"">+</div>","null","html-keyboard-response","248","173402","0.0-6.0-0.121","RHGA","3","f","rechts","19","","fixation","","","",""
"675","img/0_210.png","70","image-keyboard-response","249","174078","0.0-6.0-1.121","RHGA","3","f","rechts","19","","","object","f","0","true"
"null","<div style=""font-size:60px;"">+</div>","null","html-keyboard-response","250","174580","0.0-6.0-0.122","RHGA","3","f","rechts","19","","fixation","","","",""
"892","img/L90_180.png","70","image-keyboard-response","251","175472","0.0-6.0-1.122","RHGA","3","f","rechts","19","","","object","j","90","false"
"null","<div style=""font-size:60px;"">+</div>","null","html-keyboard-response","252","175923","0.0-6.0-0.123","RHGA","3","f","rechts","19","","fixation","","","",""
"696","img/60_90.png","74","image-keyboard-response","253","176620","0.0-6.0-1.123","RHGA","3","f","rechts","19","","","object","j","60","true"
"null","<div style=""font-size:60px;"">+</div>","null","html-keyboard-response","254","176972","0.0-6.0-0.124","RHGA","3","f","rechts","19","","fixation","","","",""
"1066","img/120_30.png","74","image-keyboard-response","255","178039","0.0-6.0-1.124","RHGA","3","f","rechts","19","","","object","f","120","false"
"null","<div style=""font-size:60px;"">+</div>","null","html-keyboard-response","256","178490","0.0-6.0-0.125","RHGA","3","f","rechts","19","","fixation","","","",""
"701","img/L120_180.png","70","image-keyboard-response","257","179193","0.0-6.0-1.125","RHGA","3","f","rechts","19","","","object","j","120","false"
"null","<div style=""font-size:60px;"">+</div>","null","html-keyboard-response","258","179694","0.0-6.0-0.126","RHGA","3","f","rechts","19","","fixation","","","",""
"659","img/0_30.png","74","image-keyboard-response","259","180354","0.0-6.0-1.126","RHGA","3","f","rechts","19","","","object","j","0","true"
"null","<div style=""font-size:60px;"">+</div>","null","html-keyboard-response","260","180804","0.0-6.0-0.127","RHGA","3","f","rechts","19","","fixation","","","",""
"637","img/120_90.png","70","image-keyboard-response","261","181442","0.0-6.0-1.127","RHGA","3","f","rechts","19","","","object","f","120","true"
"null","<div style=""font-size:60px;"">+</div>","null","html-keyboard-response","262","181742","0.0-6.0-0.128","RHGA","3","f","rechts","19","","fixation","","","",""
"778","img/30_300.png","70","image-keyboard-response","263","182522","0.0-6.0-1.128","RHGA","3","f","rechts","19","","","object","f","30","true"
"null","<div style=""font-size:60px;"">+</div>","null","html-keyboard-response","264","183022","0.0-6.0-0.129","RHGA","3","f","rechts","19","","fixation","","","",""
"606","img/30_120.png","74","image-keyboard-response","265","183629","0.0-6.0-1.129","RHGA","3","f","rechts","19","","","object","j","30","true"
"null","<div style=""font-size:60px;"">+</div>","null","html-keyboard-response","266","183980","0.0-6.0-0.130","RHGA","3","f","rechts","19","","fixation","","","",""
"682","img/60_150.png","74","image-keyboard-response","267","184663","0.0-6.0-1.130","RHGA","3","f","rechts","19","","","object","j","60","true"
"null","<div style=""font-size:60px;"">+</div>","null","html-keyboard-response","268","185164","0.0-6.0-0.131","RHGA","3","f","rechts","19","","fixation","","","",""
"691","img/90_240.png","70","image-keyboard-response","269","185855","0.0-6.0-1.131","RHGA","3","f","rechts","19","","","object","f","90","true"
"null","<div style=""font-size:60px;"">+</div>","null","html-keyboard-response","270","186207","0.0-6.0-0.132","RHGA","3","f","rechts","19","","fixation","","","",""
"799","img/L150_180.png","70","image-keyboard-response","271","187007","0.0-6.0-1.132","RHGA","3","f","rechts","19","","","object","j","150","false"
"null","<div style=""font-size:60px;"">+</div>","null","html-keyboard-response","272","187458","0.0-6.0-0.133","RHGA","3","f","rechts","19","","fixation","","","",""
"820","img/150_90.png","70","image-keyboard-response","273","188279","0.0-6.0-1.133","RHGA","3","f","rechts","19","","","object","f","150","true"
"null","<div style=""font-size:60px;"">+</div>","null","html-keyboard-response","274","188781","0.0-6.0-0.134","RHGA","3","f","rechts","19","","fixation","","","",""
"548","img/60_210.png","70","image-keyboard-response","275","189329","0.0-6.0-1.134","RHGA","3","f","rechts","19","","","object","f","60","true"
"null","<div style=""font-size:60px;"">+</div>","null","html-keyboard-response","276","189781","0.0-6.0-0.135","RHGA","3","f","rechts","19","","fixation","","","",""
"686","img/L60_180.png","74","image-keyboard-response","277","190467","0.0-6.0-1.135","RHGA","3","f","rechts","19","","","object","j","60","true"
"null","<div style=""font-size:60px;"">+</div>","null","html-keyboard-response","278","190969","0.0-6.0-0.136","RHGA","3","f","rechts","19","","fixation","","","",""
"618","img/30_60.png","74","image-keyboard-response","279","191587","0.0-6.0-1.136","RHGA","3","f","rechts","19","","","object","j","30","true"
"null","<div style=""font-size:60px;"">+</div>","null","html-keyboard-response","280","192088","0.0-6.0-0.137","RHGA","3","f","rechts","19","","fixation","","","",""
"535","img/60_30.png","74","image-keyboard-response","281","192624","0.0-6.0-1.137","RHGA","3","f","rechts","19","","","object","f","60","false"
"null","<div style=""font-size:60px;"">+</div>","null","html-keyboard-response","282","193125","0.0-6.0-0.138","RHGA","3","f","rechts","19","","fixation","","","",""
"745","img/90_330.png","74","image-keyboard-response","283","193870","0.0-6.0-1.138","RHGA","3","f","rechts","19","","","object","j","90","true"
"null","<div style=""font-size:60px;"">+</div>","null","html-keyboard-response","284","194322","0.0-6.0-0.139","RHGA","3","f","rechts","19","","fixation","","","",""
"680","img/0_240.png","70","image-keyboard-response","285","195003","0.0-6.0-1.139","RHGA","3","f","rechts","19","","","object","f","0","true"
"null","<div style=""font-size:60px;"">+</div>","null","html-keyboard-response","286","195304","0.0-6.0-0.140","RHGA","3","f","rechts","19","","fixation","","","",""
"595","img/0_330.png","70","image-keyboard-response","287","195899","0.0-6.0-1.140","RHGA","3","f","rechts","19","","","object","f","0","true"
"null","<div style=""font-size:60px;"">+</div>","null","html-keyboard-response","288","196251","0.0-6.0-0.141","RHGA","3","f","rechts","19","","fixation","","","",""
"687","img/90_60.png","74","image-keyboard-response","289","196938","0.0-6.0-1.141","RHGA","3","f","rechts","19","","","object","f","90","false"
"null","<div style=""font-size:60px;"">+</div>","null","html-keyboard-response","290","197289","0.0-6.0-0.142","RHGA","3","f","rechts","19","","fixation","","","",""
"580","img/90_300.png","74","image-keyboard-response","291","197869","0.0-6.0-1.142","RHGA","3","f","rechts","19","","","object","j","90","true"
"null","<div style=""font-size:60px;"">+</div>","null","html-keyboard-response","292","198221","0.0-6.0-0.143","RHGA","3","f","rechts","19","","fixation","","","",""
"639","img/120_210.png","74","image-keyboard-response","293","198860","0.0-6.0-1.143","RHGA","3","f","rechts","19","","","object","f","120","false"
"null","<div style=""font-size:60px;"">+</div>","null","html-keyboard-response","294","199162","0.0-6.0-0.144","RHGA","3","f","rechts","19","","fixation","","","",""
"525","img/90_120.png","70","image-keyboard-response","295","199687","0.0-6.0-1.144","RHGA","3","f","rechts","19","","","object","j","90","false"
"null","<div style=""font-size:60px;"">+</div>","null","html-keyboard-response","296","200088","0.0-6.0-0.145","RHGA","3","f","rechts","19","","fixation","","","",""
"630","img/30_240.png","70","image-keyboard-response","297","200719","0.0-6.0-1.145","RHGA","3","f","rechts","19","","","object","f","30","true"
"null","<div style=""font-size:60px;"">+</div>","null","html-keyboard-response","298","201170","0.0-6.0-0.146","RHGA","3","f","rechts","19","","fixation","","","",""
"660","img/150_240.png","74","image-keyboard-response","299","201832","0.0-6.0-1.146","RHGA","3","f","rechts","19","","","object","j","150","true"
"null","<div style=""font-size:60px;"">+</div>","null","html-keyboard-response","300","202133","0.0-6.0-0.147","RHGA","3","f","rechts","19","","fixation","","","",""
"648","img/150_120.png","70","image-keyboard-response","301","202782","0.0-6.0-1.147","RHGA","3","f","rechts","19","","","object","f","150","true"
"null","<div style=""font-size:60px;"">+</div>","null","html-keyboard-response","302","203284","0.0-6.0-0.148","RHGA","3","f","rechts","19","","fixation","","","",""
"617","img/90_180.png","74","image-keyboard-response","303","203901","0.0-6.0-1.148","RHGA","3","f","rechts","19","","","object","f","90","false"
"null","<div style=""font-size:60px;"">+</div>","null","html-keyboard-response","304","204402","0.0-6.0-0.149","RHGA","3","f","rechts","19","","fixation","","","",""
"535","img/90_30.png","74","image-keyboard-response","305","204938","0.0-6.0-1.149","RHGA","3","f","rechts","19","","","object","f","90","false"
"null","<div style=""font-size:60px;"">+</div>","null","html-keyboard-response","306","205388","0.0-6.0-0.150","RHGA","3","f","rechts","19","","fixation","","","",""
"756","img/0_270.png","70","image-keyboard-response","307","206145","0.0-6.0-1.150","RHGA","3","f","rechts","19","","","object","f","0","true"
"null","<div style=""font-size:60px;"">+</div>","null","html-keyboard-response","308","206646","0.0-6.0-0.151","RHGA","3","f","rechts","19","","fixation","","","",""
"782","img/90_210.png","74","image-keyboard-response","309","207430","0.0-6.0-1.151","RHGA","3","f","rechts","19","","","object","f","90","false"
"null","<div style=""font-size:60px;"">+</div>","null","html-keyboard-response","310","207831","0.0-6.0-0.152","RHGA","3","f","rechts","19","","fixation","","","",""
"695","img/0_60.png","74","image-keyboard-response","311","208527","0.0-6.0-1.152","RHGA","3","f","rechts","19","","","object","j","0","true"
"null","<div style=""font-size:60px;"">+</div>","null","html-keyboard-response","312","209029","0.0-6.0-0.153","RHGA","3","f","rechts","19","","fixation","","","",""
"574","img/120_150.png","70","image-keyboard-response","313","209603","0.0-6.0-1.153","RHGA","3","f","rechts","19","","","object","j","120","false"
"null","<div style=""font-size:60px;"">+</div>","null","html-keyboard-response","314","209905","0.0-6.0-0.154","RHGA","3","f","rechts","19","","fixation","","","",""
"690","img/150_60.png","70","image-keyboard-response","315","210596","0.0-6.0-1.154","RHGA","3","f","rechts","19","","","object","f","150","true"
"null","<div style=""font-size:60px;"">+</div>","null","html-keyboard-response","316","211096","0.0-6.0-0.155","RHGA","3","f","rechts","19","","fixation","","","",""
"559","img/120_180.png","74","image-keyboard-response","317","211656","0.0-6.0-1.155","RHGA","3","f","rechts","19","","","object","f","120","false"
"null","<div style=""font-size:60px;"">+</div>","null","html-keyboard-response","318","212107","0.0-6.0-0.156","RHGA","3","f","rechts","19","","fixation","","","",""
"657","img/30_270.png","70","image-keyboard-response","319","212765","0.0-6.0-1.156","RHGA","3","f","rechts","19","","","object","f","30","true"
"null","<div style=""font-size:60px;"">+</div>","null","html-keyboard-response","320","213215","0.0-6.0-0.157","RHGA","3","f","rechts","19","","fixation","","","",""
"556","img/30_180.png","70","image-keyboard-response","321","213773","0.0-6.0-1.157","RHGA","3","f","rechts","19","","","object","f","30","true"
"null","<div style=""font-size:60px;"">+</div>","null","html-keyboard-response","322","214074","0.0-6.0-0.158","RHGA","3","f","rechts","19","","fixation","","","",""
"581","img/60_330.png","70","image-keyboard-response","323","214656","0.0-6.0-1.158","RHGA","3","f","rechts","19","","","object","j","60","false"
"null","<div style=""font-size:60px;"">+</div>","null","html-keyboard-response","324","214957","0.0-6.0-0.159","RHGA","3","f","rechts","19","","fixation","","","",""
"715","img/L120_180.png","70","image-keyboard-response","325","215674","0.0-6.0-1.159","RHGA","3","f","rechts","19","","","object","j","120","false"
"null","<div style=""font-size:60px;"">+</div>","null","html-keyboard-response","326","216025","0.0-6.0-0.160","RHGA","3","f","rechts","19","","fixation","","","",""
"685","img/120_90.png","70","image-keyboard-response","327","216711","0.0-6.0-1.160","RHGA","3","f","rechts","19","","","object","f","120","true"
"null","<div style=""font-size:60px;"">+</div>","null","html-keyboard-response","328","217162","0.0-6.0-0.161","RHGA","3","f","rechts","19","","fixation","","","",""
"698","img/90_240.png","74","image-keyboard-response","329","217861","0.0-6.0-1.161","RHGA","3","f","rechts","19","","","object","f","90","false"
"null","<div style=""font-size:60px;"">+</div>","null","html-keyboard-response","330","218212","0.0-6.0-0.162","RHGA","3","f","rechts","19","","fixation","","","",""
"623","img/90_300.png","74","image-keyboard-response","331","218836","0.0-6.0-1.162","RHGA","3","f","rechts","19","","","object","j","90","true"
"null","<div style=""font-size:60px;"">+</div>","null","html-keyboard-response","332","219138","0.0-6.0-0.163","RHGA","3","f","rechts","19","","fixation","","","",""
"690","img/150_90.png","70","image-keyboard-response","333","219828","0.0-6.0-1.163","RHGA","3","f","rechts","19","","","object","f","150","true"
"null","<div style=""font-size:60px;"">+</div>","null","html-keyboard-response","334","220329","0.0-6.0-0.164","RHGA","3","f","rechts","19","","fixation","","","",""
"790","img/0_240.png","70","image-keyboard-response","335","221119","0.0-6.0-1.164","RHGA","3","f","rechts","19","","","object","f","0","true"
"null","<div style=""font-size:60px;"">+</div>","null","html-keyboard-response","336","221471","0.0-6.0-0.165","RHGA","3","f","rechts","19","","fixation","","","",""
"572","img/0_300.png","70","image-keyboard-response","337","222044","0.0-6.0-1.165","RHGA","3","f","rechts","19","","","object","f","0","true"
"null","<div style=""font-size:60px;"">+</div>","null","html-keyboard-response","338","222495","0.0-6.0-0.166","RHGA","3","f","rechts","19","","fixation","","","",""
"684","img/60_210.png","70","image-keyboard-response","339","223180","0.0-6.0-1.166","RHGA","3","f","rechts","19","","","object","f","60","true"
"null","<div style=""font-size:60px;"">+</div>","null","html-keyboard-response","340","223481","0.0-6.0-0.167","RHGA","3","f","rechts","19","","fixation","","","",""
"647","img/30_240.png","74","image-keyboard-response","341","224128","0.0-6.0-1.167","RHGA","3","f","rechts","19","","","object","f","30","false"
"null","<div style=""font-size:60px;"">+</div>","null","html-keyboard-response","342","224530","0.0-6.0-0.168","RHGA","3","f","rechts","19","","fixation","","","",""
"532","img/90_210.png","70","image-keyboard-response","343","225062","0.0-6.0-1.168","RHGA","3","f","rechts","19","","","object","f","90","true"
"null","<div style=""font-size:60px;"">+</div>","null","html-keyboard-response","344","225564","0.0-6.0-0.169","RHGA","3","f","rechts","19","","fixation","","","",""
"558","img/30_120.png","74","image-keyboard-response","345","226122","0.0-6.0-1.169","RHGA","3","f","rechts","19","","","object","j","30","true"
"null","<div style=""font-size:60px;"">+</div>","null","html-keyboard-response","346","226523","0.0-6.0-0.170","RHGA","3","f","rechts","19","","fixation","","","",""
"605","img/60_150.png","74","image-keyboard-response","347","227128","0.0-6.0-1.170","RHGA","3","f","rechts","19","","","object","j","60","true"
"null","<div style=""font-size:60px;"">+</div>","null","html-keyboard-response","348","227629","0.0-6.0-0.171","RHGA","3","f","rechts","19","","fixation","","","",""
"728","img/90_120.png","70","image-keyboard-response","349","228359","0.0-6.0-1.171","RHGA","3","f","rechts","19","","","object","j","90","false"
"null","<div style=""font-size:60px;"">+</div>","null","html-keyboard-response","350","228809","0.0-6.0-0.172","RHGA","3","f","rechts","19","","fixation","","","",""
"670","img/L30_180.png","74","image-keyboard-response","351","229481","0.0-6.0-1.172","RHGA","3","f","rechts","19","","","object","j","30","true"
"null","<div style=""font-size:60px;"">+</div>","null","html-keyboard-response","352","229881","0.0-6.0-0.173","RHGA","3","f","rechts","19","","fixation","","","",""
"571","img/L60_180.png","74","image-keyboard-response","353","230453","0.0-6.0-1.173","RHGA","3","f","rechts","19","","","object","j","60","true"
"null","<div style=""font-size:60px;"">+</div>","null","html-keyboard-response","354","230905","0.0-6.0-0.174","RHGA","3","f","rechts","19","","fixation","","","",""
"671","img/0_270.png","70","image-keyboard-response","355","231578","0.0-6.0-1.174","RHGA","3","f","rechts","19","","","object","f","0","true"
"null","<div style=""font-size:60px;"">+</div>","null","html-keyboard-response","356","231878","0.0-6.0-0.175","RHGA","3","f","rechts","19","","fixation","","","",""
"658","img/60_270.png","70","image-keyboard-response","357","232537","0.0-6.0-1.175","RHGA","3","f","rechts","19","","","object","f","60","true"
"null","<div style=""font-size:60px;"">+</div>","null","html-keyboard-response","358","232989","0.0-6.0-0.176","RHGA","3","f","rechts","19","","fixation","","","",""
"815","img/90_180.png","74","image-keyboard-response","359","233804","0.0-6.0-1.176","RHGA","3","f","rechts","19","","","object","f","90","false"
"null","<div style=""font-size:60px;"">+</div>","null","html-keyboard-response","360","234155","0.0-6.0-0.177","RHGA","3","f","rechts","19","","fixation","","","",""
"660","img/L90_180.png","70","image-keyboard-response","361","234816","0.0-6.0-1.177","RHGA","3","f","rechts","19","","","object","j","90","false"
"null","<div style=""font-size:60px;"">+</div>","null","html-keyboard-response","362","235118","0.0-6.0-0.178","RHGA","3","f","rechts","19","","fixation","","","",""
"794","img/150_120.png","70","image-keyboard-response","363","235914","0.0-6.0-1.178","RHGA","3","f","rechts","19","","","object","f","150","true"
"null","<div style=""font-size:60px;"">+</div>","null","html-keyboard-response","364","236315","0.0-6.0-0.179","RHGA","3","f","rechts","19","","fixation","","","",""
"686","img/0_210.png","70","image-keyboard-response","365","237001","0.0-6.0-1.179","RHGA","3","f","rechts","19","","","object","f","0","true"
"null","<div style=""font-size:60px;"">+</div>","null","html-keyboard-response","366","237503","0.0-6.0-0.180","RHGA","3","f","rechts","19","","fixation","","","",""
"740","img/120_210.png","74","image-keyboard-response","367","238244","0.0-6.0-1.180","RHGA","3","f","rechts","19","","","object","f","120","false"
"null","<div style=""font-size:60px;"">+</div>","null","html-keyboard-response","368","238544","0.0-6.0-0.181","RHGA","3","f","rechts","19","","fixation","","","",""
"677","img/120_270.png","70","image-keyboard-response","369","239222","0.0-6.0-1.181","RHGA","3","f","rechts","19","","","object","j","120","false"
"null","<div style=""font-size:60px;"">+</div>","null","html-keyboard-response","370","239724","0.0-6.0-0.182","RHGA","3","f","rechts","19","","fixation","","","",""
"594","img/60_30.png","70","image-keyboard-response","371","240319","0.0-6.0-1.182","RHGA","3","f","rechts","19","","","object","f","60","true"
"null","<div style=""font-size:60px;"">+</div>","null","html-keyboard-response","372","240670","0.0-6.0-0.183","RHGA","3","f","rechts","19","","fixation","","","",""
"596","img/0_120.png","74","image-keyboard-response","373","241267","0.0-6.0-1.183","RHGA","3","f","rechts","19","","","object","j","0","true"
"null","<div style=""font-size:60px;"">+</div>","null","html-keyboard-response","374","241568","0.0-6.0-0.184","RHGA","3","f","rechts","19","","fixation","","","",""
"609","img/0_330.png","70","image-keyboard-response","375","242178","0.0-6.0-1.184","RHGA","3","f","rechts","19","","","object","f","0","true"
"null","<div style=""font-size:60px;"">+</div>","null","html-keyboard-response","376","242480","0.0-6.0-0.185","RHGA","3","f","rechts","19","","fixation","","","",""
"613","img/0_90.png","74","image-keyboard-response","377","243093","0.0-6.0-1.185","RHGA","3","f","rechts","19","","","object","j","0","true"
"null","<div style=""font-size:60px;"">+</div>","null","html-keyboard-response","378","243495","0.0-6.0-0.186","RHGA","3","f","rechts","19","","fixation","","","",""
"716","img/30_90.png","74","image-keyboard-response","379","244211","0.0-6.0-1.186","RHGA","3","f","rechts","19","","","object","j","30","true"
"null","<div style=""font-size:60px;"">+</div>","null","html-keyboard-response","380","244511","0.0-6.0-0.187","RHGA","3","f","rechts","19","","fixation","","","",""
"1096","img/150_270.png","74","image-keyboard-response","381","245609","0.0-6.0-1.187","RHGA","3","f","rechts","19","","","object","j","150","true"
"null","<div style=""font-size:60px;"">+</div>","null","html-keyboard-response","382","246059","0.0-6.0-0.188","RHGA","3","f","rechts","19","","fixation","","","",""
"974","img/90_60.png","70","image-keyboard-response","383","247034","0.0-6.0-1.188","RHGA","3","f","rechts","19","","","object","f","90","true"
"null","<div style=""font-size:60px;"">+</div>","null","html-keyboard-response","384","247535","0.0-6.0-0.189","RHGA","3","f","rechts","19","","fixation","","","",""
"665","img/30_60.png","74","image-keyboard-response","385","248201","0.0-6.0-1.189","RHGA","3","f","rechts","19","","","object","j","30","true"
"null","<div style=""font-size:60px;"">+</div>","null","html-keyboard-response","386","248603","0.0-6.0-0.190","RHGA","3","f","rechts","19","","fixation","","","",""
"700","img/60_180.png","70","image-keyboard-response","387","249303","0.0-6.0-1.190","RHGA","3","f","rechts","19","","","object","f","60","true"
"null","<div style=""font-size:60px;"">+</div>","null","html-keyboard-response","388","249655","0.0-6.0-0.191","RHGA","3","f","rechts","19","","fixation","","","",""
"740","img/90_330.png","74","image-keyboard-response","389","250395","0.0-6.0-1.191","RHGA","3","f","rechts","19","","","object","j","90","true"
"null","<div style=""font-size:60px;"">+</div>","null","html-keyboard-response","390","250797","0.0-6.0-0.192","RHGA","3","f","rechts","19","","fixation","","","",""
"698","img/90_30.png","70","image-keyboard-response","391","251496","0.0-6.0-1.192","RHGA","3","f","rechts","19","","","object","f","90","true"
"null","<div style=""font-size:60px;"">+</div>","null","html-keyboard-response","392","251897","0.0-6.0-0.193","RHGA","3","f","rechts","19","","fixation","","","",""
"651","img/120_180.png","74","image-keyboard-response","393","252548","0.0-6.0-1.193","RHGA","3","f","rechts","19","","","object","f","120","false"
"null","<div style=""font-size:60px;"">+</div>","null","html-keyboard-response","394","252900","0.0-6.0-0.194","RHGA","3","f","rechts","19","","fixation","","","",""
"562","img/120_150.png","70","image-keyboard-response","395","253462","0.0-6.0-1.194","RHGA","3","f","rechts","19","","","object","j","120","false"
"null","<div style=""font-size:60px;"">+</div>","null","html-keyboard-response","396","253963","0.0-6.0-0.195","RHGA","3","f","rechts","19","","fixation","","","",""
"606","img/150_300.png","74","image-keyboard-response","397","254569","0.0-6.0-1.195","RHGA","3","f","rechts","19","","","object","j","150","true"
"null","<div style=""font-size:60px;"">+</div>","null","html-keyboard-response","398","255020","0.0-6.0-0.196","RHGA","3","f","rechts","19","","fixation","","","",""
"597","img/150_60.png","70","image-keyboard-response","399","255617","0.0-6.0-1.196","RHGA","3","f","rechts","19","","","object","f","150","true"
"null","<div style=""font-size:60px;"">+</div>","null","html-keyboard-response","400","255918","0.0-6.0-0.197","RHGA","3","f","rechts","19","","fixation","","","",""
"680","img/150_180.png","74","image-keyboard-response","401","256599","0.0-6.0-1.197","RHGA","3","f","rechts","19","","","object","f","150","false"
"null","<div style=""font-size:60px;"">+</div>","null","html-keyboard-response","402","257100","0.0-6.0-0.198","RHGA","3","f","rechts","19","","fixation","","","",""
"580","img/150_240.png","74","image-keyboard-response","403","257681","0.0-6.0-1.198","RHGA","3","f","rechts","19","","","object","j","150","true"
"null","<div style=""font-size:60px;"">+</div>","null","html-keyboard-response","404","258032","0.0-6.0-0.199","RHGA","3","f","rechts","19","","fixation","","","",""
"900","img/60_90.png","74","image-keyboard-response","405","258933","0.0-6.0-1.199","RHGA","3","f","rechts","19","","","object","j","60","true"
"null","<div style=""font-size:60px;"">+</div>","null","html-keyboard-response","406","259285","0.0-6.0-0.200","RHGA","3","f","rechts","19","","fixation","","","",""
"707","img/120_30.png","70","image-keyboard-response","407","259992","0.0-6.0-1.200","RHGA","3","f","rechts","19","","","object","f","120","true"
"null","<div style=""font-size:60px;"">+</div>","null","html-keyboard-response","408","260393","0.0-6.0-0.201","RHGA","3","f","rechts","19","","fixation","","","",""
"659","img/0_150.png","74","image-keyboard-response","409","261054","0.0-6.0-1.201","RHGA","3","f","rechts","19","","","object","j","0","true"
"null","<div style=""font-size:60px;"">+</div>","null","html-keyboard-response","410","261355","0.0-6.0-0.202","RHGA","3","f","rechts","19","","fixation","","","",""
"629","img/0_30.png","74","image-keyboard-response","411","261986","0.0-6.0-1.202","RHGA","3","f","rechts","19","","","object","j","0","true"
"null","<div style=""font-size:60px;"">+</div>","null","html-keyboard-response","412","262487","0.0-6.0-0.203","RHGA","3","f","rechts","19","","fixation","","","",""
"749","img/90_150.png","74","image-keyboard-response","413","263238","0.0-6.0-1.203","RHGA","3","f","rechts","19","","","object","j","90","true"
"null","<div style=""font-size:60px;"">+</div>","null","html-keyboard-response","414","263588","0.0-6.0-0.204","RHGA","3","f","rechts","19","","fixation","","","",""
"630","img/0_60.png","74","image-keyboard-response","415","264220","0.0-6.0-1.204","RHGA","3","f","rechts","19","","","object","j","0","true"
"null","<div style=""font-size:60px;"">+</div>","null","html-keyboard-response","416","264720","0.0-6.0-0.205","RHGA","3","f","rechts","19","","fixation","","","",""
"673","img/L150_180.png","70","image-keyboard-response","417","265394","0.0-6.0-1.205","RHGA","3","f","rechts","19","","","object","j","150","false"
"null","<div style=""font-size:60px;"">+</div>","null","html-keyboard-response","418","265896","0.0-6.0-0.206","RHGA","3","f","rechts","19","","fixation","","","",""
"680","img/30_300.png","70","image-keyboard-response","419","266577","0.0-6.0-1.206","RHGA","3","f","rechts","19","","","object","f","30","true"
"null","<div style=""font-size:60px;"">+</div>","null","html-keyboard-response","420","267027","0.0-6.0-0.207","RHGA","3","f","rechts","19","","fixation","","","",""
"1085","img/120_330.png","74","image-keyboard-response","421","268113","0.0-6.0-1.207","RHGA","3","f","rechts","19","","","object","j","120","true"
"12358","<p>Du hast in 70% der Versuche korrekt entschieden.</p><p>Deine durchschnittliche Reaktionszeit war  692ms.</p><p>Dr&uuml;cke eine beliebige Taste, um die Session zu beenden. Vielen Dank!</p>","32","html-keyboard-response","422","280474","0.0-7.0","RHGA","3","f","rechts","19","","","","","",""
