"rt","stimulus","key_press","trial_type","trial_index","time_elapsed","internal_node_id","subject","session","sex","handedness","age","responses","test_part","condition","correct_response","angle","correct"
"3834","<p>Mental Rotation Experiment.</p> <p>Dr&uuml;cke eine beliebige Taste, um anzufangen.</p>","70","html-keyboard-response","0","3840","0.0-0.0","RHGA","1","f","rechts","19","","","","","",""
"6966","","","survey-text","1","10808","0.0-1.0","RHGA","1","f","rechts","19","{""Q0"":""RHGA""}","","","","",""
"2070","","","survey-text","2","12879","0.0-2.0","RHGA","1","f","rechts","19","{""Q0"":""1""}","","","","",""
"13353","","","survey-multi-choice","3","26236","0.0-3.0","RHGA","1","f","rechts","19","{""Q0"":""f"",""Q1"":""rechts""}","","","","",""
"3904","","","survey-text","4","30141","0.0-4.0","RHGA","1","f","rechts","19","{""Q0"":""19""}","","","","",""
"10197","<p>Stell dir vor, dass du vor einem runden Tisch stehst, auf dem sich ein blauer Ball am Tischrand befindet. Entlang des Tischrands ist jeweils ein verschieden langer Pfeil. Nun bleibst du an deinem Platz vor dem Tisch und rotierst den Tisch entlang des Pfeils (gleiche Richtung und Länge). </p> <img src='img/30_180.png'></img> <br><p> Nachdem du diese (vorgestellte) Rotation durchgef&uuml;hrt hast, schau in Richtung der Tischmitte, und entscheide dann, ob der Ball links oder rechts von dir liegt.</p> <p>Dr&uuml;cke die <strong>'f'</strong>-Taste f&uuml;r links, die <strong>'j'</strong>-Taste f&uuml;r rechts.</p><br><p> Das Bild wird jeweils 1 Sekunde lang pr&auml;sentiert. Du hast 3 Sekunden Zeit eine Entscheidung zu treffen.</p>","70","html-keyboard-response","5","40340","0.0-5.0","RHGA","1","f","rechts","19","","","","","",""
"null","<div style=""font-size:60px;"">+</div>","null","html-keyboard-response","6","41792","0.0-6.0-0.0","RHGA","1","f","rechts","19","","fixation","","","",""
"721","img/30_300.png","70","image-keyboard-response","7","42515","0.0-6.0-1.0","RHGA","1","f","rechts","19","","","object","f","30","true"
"null","<div style=""font-size:60px;"">+</div>","null","html-keyboard-response","8","42816","0.0-6.0-0.1","RHGA","1","f","rechts","19","","fixation","","","",""
"1003","img/L120_180.png","70","image-keyboard-response","9","43821","0.0-6.0-1.1","RHGA","1","f","rechts","19","","","object","j","120","false"
"null","<div style=""font-size:60px;"">+</div>","null","html-keyboard-response","10","44122","0.0-6.0-0.2","RHGA","1","f","rechts","19","","fixation","","","",""
"862","img/120_330.png","70","image-keyboard-response","11","44985","0.0-6.0-1.2","RHGA","1","f","rechts","19","","","object","j","120","false"
"null","<div style=""font-size:60px;"">+</div>","null","html-keyboard-response","12","45336","0.0-6.0-0.3","RHGA","1","f","rechts","19","","fixation","","","",""
"1178","img/120_180.png","74","image-keyboard-response","13","46514","0.0-6.0-1.3","RHGA","1","f","rechts","19","","","object","f","120","false"
"null","<div style=""font-size:60px;"">+</div>","null","html-keyboard-response","14","46816","0.0-6.0-0.4","RHGA","1","f","rechts","19","","fixation","","","",""
"920","img/120_270.png","74","image-keyboard-response","15","47737","0.0-6.0-1.4","RHGA","1","f","rechts","19","","","object","j","120","true"
"null","<div style=""font-size:60px;"">+</div>","null","html-keyboard-response","16","48088","0.0-6.0-0.5","RHGA","1","f","rechts","19","","fixation","","","",""
"1229","img/60_180.png","70","image-keyboard-response","17","49318","0.0-6.0-1.5","RHGA","1","f","rechts","19","","","object","f","60","true"
"null","<div style=""font-size:60px;"">+</div>","null","html-keyboard-response","18","49820","0.0-6.0-0.6","RHGA","1","f","rechts","19","","fixation","","","",""
"821","img/30_180.png","70","image-keyboard-response","19","50641","0.0-6.0-1.6","RHGA","1","f","rechts","19","","","object","f","30","true"
"null","<div style=""font-size:60px;"">+</div>","null","html-keyboard-response","20","50993","0.0-6.0-0.7","RHGA","1","f","rechts","19","","fixation","","","",""
"762","img/0_300.png","70","image-keyboard-response","21","51757","0.0-6.0-1.7","RHGA","1","f","rechts","19","","","object","f","0","true"
"null","<div style=""font-size:60px;"">+</div>","null","html-keyboard-response","22","52258","0.0-6.0-0.8","RHGA","1","f","rechts","19","","fixation","","","",""
"869","img/90_30.png","74","image-keyboard-response","23","53128","0.0-6.0-1.8","RHGA","1","f","rechts","19","","","object","f","90","false"
"null","<div style=""font-size:60px;"">+</div>","null","html-keyboard-response","24","53429","0.0-6.0-0.9","RHGA","1","f","rechts","19","","fixation","","","",""
"948","img/0_90.png","74","image-keyboard-response","25","54378","0.0-6.0-1.9","RHGA","1","f","rechts","19","","","object","j","0","true"
"null","<div style=""font-size:60px;"">+</div>","null","html-keyboard-response","26","54829","0.0-6.0-0.10","RHGA","1","f","rechts","19","","fixation","","","",""
"882","img/90_120.png","70","image-keyboard-response","27","55712","0.0-6.0-1.10","RHGA","1","f","rechts","19","","","object","j","90","false"
"null","<div style=""font-size:60px;"">+</div>","null","html-keyboard-response","28","56213","0.0-6.0-0.11","RHGA","1","f","rechts","19","","fixation","","","",""
"754","img/L60_180.png","74","image-keyboard-response","29","56969","0.0-6.0-1.11","RHGA","1","f","rechts","19","","","object","j","60","true"
"null","<div style=""font-size:60px;"">+</div>","null","html-keyboard-response","30","57370","0.0-6.0-0.12","RHGA","1","f","rechts","19","","fixation","","","",""
"918","img/150_90.png","74","image-keyboard-response","31","58290","0.0-6.0-1.12","RHGA","1","f","rechts","19","","","object","f","150","false"
"null","<div style=""font-size:60px;"">+</div>","null","html-keyboard-response","32","58790","0.0-6.0-0.13","RHGA","1","f","rechts","19","","fixation","","","",""
"1063","img/90_210.png","74","image-keyboard-response","33","59855","0.0-6.0-1.13","RHGA","1","f","rechts","19","","","object","f","90","false"
"null","<div style=""font-size:60px;"">+</div>","null","html-keyboard-response","34","60156","0.0-6.0-0.14","RHGA","1","f","rechts","19","","fixation","","","",""
"845","img/0_120.png","74","image-keyboard-response","35","61002","0.0-6.0-1.14","RHGA","1","f","rechts","19","","","object","j","0","true"
"null","<div style=""font-size:60px;"">+</div>","null","html-keyboard-response","36","61503","0.0-6.0-0.15","RHGA","1","f","rechts","19","","fixation","","","",""
"831","img/60_90.png","74","image-keyboard-response","37","62335","0.0-6.0-1.15","RHGA","1","f","rechts","19","","","object","j","60","true"
"null","<div style=""font-size:60px;"">+</div>","null","html-keyboard-response","38","62836","0.0-6.0-0.16","RHGA","1","f","rechts","19","","fixation","","","",""
"923","img/90_60.png","74","image-keyboard-response","39","63760","0.0-6.0-1.16","RHGA","1","f","rechts","19","","","object","f","90","false"
"null","<div style=""font-size:60px;"">+</div>","null","html-keyboard-response","40","64261","0.0-6.0-0.17","RHGA","1","f","rechts","19","","fixation","","","",""
"746","img/0_30.png","74","image-keyboard-response","41","65009","0.0-6.0-1.17","RHGA","1","f","rechts","19","","","object","j","0","true"
"null","<div style=""font-size:60px;"">+</div>","null","html-keyboard-response","42","65409","0.0-6.0-0.18","RHGA","1","f","rechts","19","","fixation","","","",""
"821","img/150_270.png","70","image-keyboard-response","43","66232","0.0-6.0-1.18","RHGA","1","f","rechts","19","","","object","j","150","false"
"null","<div style=""font-size:60px;"">+</div>","null","html-keyboard-response","44","66733","0.0-6.0-0.19","RHGA","1","f","rechts","19","","fixation","","","",""
"919","img/L90_180.png","74","image-keyboard-response","45","67653","0.0-6.0-1.19","RHGA","1","f","rechts","19","","","object","j","90","true"
"null","<div style=""font-size:60px;"">+</div>","null","html-keyboard-response","46","67954","0.0-6.0-0.20","RHGA","1","f","rechts","19","","fixation","","","",""
"865","img/30_270.png","70","image-keyboard-response","47","68820","0.0-6.0-1.20","RHGA","1","f","rechts","19","","","object","f","30","true"
"null","<div style=""font-size:60px;"">+</div>","null","html-keyboard-response","48","69171","0.0-6.0-0.21","RHGA","1","f","rechts","19","","fixation","","","",""
"800","img/60_150.png","74","image-keyboard-response","49","69972","0.0-6.0-1.21","RHGA","1","f","rechts","19","","","object","j","60","true"
"null","<div style=""font-size:60px;"">+</div>","null","html-keyboard-response","50","70274","0.0-6.0-0.22","RHGA","1","f","rechts","19","","fixation","","","",""
"868","img/120_150.png","70","image-keyboard-response","51","71143","0.0-6.0-1.22","RHGA","1","f","rechts","19","","","object","j","120","false"
"null","<div style=""font-size:60px;"">+</div>","null","html-keyboard-response","52","71593","0.0-6.0-0.23","RHGA","1","f","rechts","19","","fixation","","","",""
"891","img/90_330.png","70","image-keyboard-response","53","72486","0.0-6.0-1.23","RHGA","1","f","rechts","19","","","object","j","90","false"
"null","<div style=""font-size:60px;"">+</div>","null","html-keyboard-response","54","72937","0.0-6.0-0.24","RHGA","1","f","rechts","19","","fixation","","","",""
"1000","img/60_210.png","74","image-keyboard-response","55","73939","0.0-6.0-1.24","RHGA","1","f","rechts","19","","","object","f","60","false"
"null","<div style=""font-size:60px;"">+</div>","null","html-keyboard-response","56","74440","0.0-6.0-0.25","RHGA","1","f","rechts","19","","fixation","","","",""
"872","img/150_240.png","70","image-keyboard-response","57","75314","0.0-6.0-1.25","RHGA","1","f","rechts","19","","","object","j","150","false"
"null","<div style=""font-size:60px;"">+</div>","null","html-keyboard-response","58","75616","0.0-6.0-0.26","RHGA","1","f","rechts","19","","fixation","","","",""
"985","img/0_210.png","70","image-keyboard-response","59","76602","0.0-6.0-1.26","RHGA","1","f","rechts","19","","","object","f","0","true"
"null","<div style=""font-size:60px;"">+</div>","null","html-keyboard-response","60","76903","0.0-6.0-0.27","RHGA","1","f","rechts","19","","fixation","","","",""
"760","img/60_30.png","74","image-keyboard-response","61","77664","0.0-6.0-1.27","RHGA","1","f","rechts","19","","","object","f","60","false"
"null","<div style=""font-size:60px;"">+</div>","null","html-keyboard-response","62","78115","0.0-6.0-0.28","RHGA","1","f","rechts","19","","fixation","","","",""
"817","img/150_60.png","74","image-keyboard-response","63","78933","0.0-6.0-1.28","RHGA","1","f","rechts","19","","","object","f","150","false"
"null","<div style=""font-size:60px;"">+</div>","null","html-keyboard-response","64","79234","0.0-6.0-0.29","RHGA","1","f","rechts","19","","fixation","","","",""
"879","img/150_300.png","70","image-keyboard-response","65","80115","0.0-6.0-1.29","RHGA","1","f","rechts","19","","","object","j","150","false"
"null","<div style=""font-size:60px;"">+</div>","null","html-keyboard-response","66","80515","0.0-6.0-0.30","RHGA","1","f","rechts","19","","fixation","","","",""
"726","img/60_330.png","70","image-keyboard-response","67","81242","0.0-6.0-1.30","RHGA","1","f","rechts","19","","","object","j","60","false"
"null","<div style=""font-size:60px;"">+</div>","null","html-keyboard-response","68","81593","0.0-6.0-0.31","RHGA","1","f","rechts","19","","fixation","","","",""
"746","img/30_120.png","74","image-keyboard-response","69","82341","0.0-6.0-1.31","RHGA","1","f","rechts","19","","","object","j","30","true"
"null","<div style=""font-size:60px;"">+</div>","null","html-keyboard-response","70","82842","0.0-6.0-0.32","RHGA","1","f","rechts","19","","fixation","","","",""
"932","img/120_30.png","70","image-keyboard-response","71","83775","0.0-6.0-1.32","RHGA","1","f","rechts","19","","","object","f","120","true"
"null","<div style=""font-size:60px;"">+</div>","null","html-keyboard-response","72","84076","0.0-6.0-0.33","RHGA","1","f","rechts","19","","fixation","","","",""
"870","img/0_240.png","70","image-keyboard-response","73","84948","0.0-6.0-1.33","RHGA","1","f","rechts","19","","","object","f","0","true"
"null","<div style=""font-size:60px;"">+</div>","null","html-keyboard-response","74","85249","0.0-6.0-0.34","RHGA","1","f","rechts","19","","fixation","","","",""
"826","img/150_180.png","70","image-keyboard-response","75","86076","0.0-6.0-1.34","RHGA","1","f","rechts","19","","","object","f","150","true"
"null","<div style=""font-size:60px;"">+</div>","null","html-keyboard-response","76","86478","0.0-6.0-0.35","RHGA","1","f","rechts","19","","fixation","","","",""
"763","img/30_60.png","74","image-keyboard-response","77","87243","0.0-6.0-1.35","RHGA","1","f","rechts","19","","","object","j","30","true"
"null","<div style=""font-size:60px;"">+</div>","null","html-keyboard-response","78","87694","0.0-6.0-0.36","RHGA","1","f","rechts","19","","fixation","","","",""
"855","img/60_270.png","70","image-keyboard-response","79","88550","0.0-6.0-1.36","RHGA","1","f","rechts","19","","","object","f","60","true"
"null","<div style=""font-size:60px;"">+</div>","null","html-keyboard-response","80","89001","0.0-6.0-0.37","RHGA","1","f","rechts","19","","fixation","","","",""
"677","img/0_60.png","74","image-keyboard-response","81","89679","0.0-6.0-1.37","RHGA","1","f","rechts","19","","","object","j","0","true"
"null","<div style=""font-size:60px;"">+</div>","null","html-keyboard-response","82","90080","0.0-6.0-0.38","RHGA","1","f","rechts","19","","fixation","","","",""
"696","img/0_330.png","70","image-keyboard-response","83","90777","0.0-6.0-1.38","RHGA","1","f","rechts","19","","","object","f","0","true"
"null","<div style=""font-size:60px;"">+</div>","null","html-keyboard-response","84","91129","0.0-6.0-0.39","RHGA","1","f","rechts","19","","fixation","","","",""
"903","img/L150_180.png","74","image-keyboard-response","85","92033","0.0-6.0-1.39","RHGA","1","f","rechts","19","","","object","j","150","true"
"null","<div style=""font-size:60px;"">+</div>","null","html-keyboard-response","86","92484","0.0-6.0-0.40","RHGA","1","f","rechts","19","","fixation","","","",""
"846","img/90_240.png","70","image-keyboard-response","87","93331","0.0-6.0-1.40","RHGA","1","f","rechts","19","","","object","f","90","true"
"null","<div style=""font-size:60px;"">+</div>","null","html-keyboard-response","88","93782","0.0-6.0-0.41","RHGA","1","f","rechts","19","","fixation","","","",""
"788","img/120_90.png","74","image-keyboard-response","89","94571","0.0-6.0-1.41","RHGA","1","f","rechts","19","","","object","f","120","false"
"null","<div style=""font-size:60px;"">+</div>","null","html-keyboard-response","90","95072","0.0-6.0-0.42","RHGA","1","f","rechts","19","","fixation","","","",""
"810","img/90_150.png","74","image-keyboard-response","91","95883","0.0-6.0-1.42","RHGA","1","f","rechts","19","","","object","j","90","true"
"null","<div style=""font-size:60px;"">+</div>","null","html-keyboard-response","92","96384","0.0-6.0-0.43","RHGA","1","f","rechts","19","","fixation","","","",""
"783","img/0_270.png","70","image-keyboard-response","93","97168","0.0-6.0-1.43","RHGA","1","f","rechts","19","","","object","f","0","true"
"null","<div style=""font-size:60px;"">+</div>","null","html-keyboard-response","94","97619","0.0-6.0-0.44","RHGA","1","f","rechts","19","","fixation","","","",""
"660","img/0_150.png","74","image-keyboard-response","95","98281","0.0-6.0-1.44","RHGA","1","f","rechts","19","","","object","j","0","true"
"null","<div style=""font-size:60px;"">+</div>","null","html-keyboard-response","96","98681","0.0-6.0-0.45","RHGA","1","f","rechts","19","","fixation","","","",""
"1126","img/30_90.png","74","image-keyboard-response","97","99808","0.0-6.0-1.45","RHGA","1","f","rechts","19","","","object","j","30","true"
"null","<div style=""font-size:60px;"">+</div>","null","html-keyboard-response","98","100209","0.0-6.0-0.46","RHGA","1","f","rechts","19","","fixation","","","",""
"1025","img/120_210.png","74","image-keyboard-response","99","101236","0.0-6.0-1.46","RHGA","1","f","rechts","19","","","object","f","120","false"
"null","<div style=""font-size:60px;"">+</div>","null","html-keyboard-response","100","101541","0.0-6.0-0.47","RHGA","1","f","rechts","19","","fixation","","","",""
"789","img/L30_180.png","74","image-keyboard-response","101","102332","0.0-6.0-1.47","RHGA","1","f","rechts","19","","","object","j","30","true"
"null","<div style=""font-size:60px;"">+</div>","null","html-keyboard-response","102","102733","0.0-6.0-0.48","RHGA","1","f","rechts","19","","fixation","","","",""
"1186","img/90_300.png","70","image-keyboard-response","103","103922","0.0-6.0-1.48","RHGA","1","f","rechts","19","","","object","j","90","false"
"null","<div style=""font-size:60px;"">+</div>","null","html-keyboard-response","104","104272","0.0-6.0-0.49","RHGA","1","f","rechts","19","","fixation","","","",""
"1121","img/90_180.png","70","image-keyboard-response","105","105395","0.0-6.0-1.49","RHGA","1","f","rechts","19","","","object","f","90","true"
"null","<div style=""font-size:60px;"">+</div>","null","html-keyboard-response","106","105796","0.0-6.0-0.50","RHGA","1","f","rechts","19","","fixation","","","",""
"849","img/30_240.png","70","image-keyboard-response","107","106646","0.0-6.0-1.50","RHGA","1","f","rechts","19","","","object","f","30","true"
"null","<div style=""font-size:60px;"">+</div>","null","html-keyboard-response","108","107098","0.0-6.0-0.51","RHGA","1","f","rechts","19","","fixation","","","",""
"748","img/150_120.png","74","image-keyboard-response","109","107848","0.0-6.0-1.51","RHGA","1","f","rechts","19","","","object","f","150","false"
"null","<div style=""font-size:60px;"">+</div>","null","html-keyboard-response","110","108249","0.0-6.0-0.52","RHGA","1","f","rechts","19","","fixation","","","",""
"642","img/30_270.png","70","image-keyboard-response","111","108892","0.0-6.0-1.52","RHGA","1","f","rechts","19","","","object","f","30","true"
"null","<div style=""font-size:60px;"">+</div>","null","html-keyboard-response","112","109392","0.0-6.0-0.53","RHGA","1","f","rechts","19","","fixation","","","",""
"1102","img/90_30.png","74","image-keyboard-response","113","110496","0.0-6.0-1.53","RHGA","1","f","rechts","19","","","object","f","90","false"
"null","<div style=""font-size:60px;"">+</div>","null","html-keyboard-response","114","110996","0.0-6.0-0.54","RHGA","1","f","rechts","19","","fixation","","","",""
"776","img/90_330.png","70","image-keyboard-response","115","111773","0.0-6.0-1.54","RHGA","1","f","rechts","19","","","object","j","90","false"
"null","<div style=""font-size:60px;"">+</div>","null","html-keyboard-response","116","112225","0.0-6.0-0.55","RHGA","1","f","rechts","19","","fixation","","","",""
"820","img/60_90.png","74","image-keyboard-response","117","113046","0.0-6.0-1.55","RHGA","1","f","rechts","19","","","object","j","60","true"
"null","<div style=""font-size:60px;"">+</div>","null","html-keyboard-response","118","113446","0.0-6.0-0.56","RHGA","1","f","rechts","19","","fixation","","","",""
"988","img/0_150.png","74","image-keyboard-response","119","114435","0.0-6.0-1.56","RHGA","1","f","rechts","19","","","object","j","0","true"
"null","<div style=""font-size:60px;"">+</div>","null","html-keyboard-response","120","114936","0.0-6.0-0.57","RHGA","1","f","rechts","19","","fixation","","","",""
"818","img/30_300.png","70","image-keyboard-response","121","115754","0.0-6.0-1.57","RHGA","1","f","rechts","19","","","object","f","30","true"
"null","<div style=""font-size:60px;"">+</div>","null","html-keyboard-response","122","116206","0.0-6.0-0.58","RHGA","1","f","rechts","19","","fixation","","","",""
"974","img/90_240.png","74","image-keyboard-response","123","117180","0.0-6.0-1.58","RHGA","1","f","rechts","19","","","object","f","90","false"
"null","<div style=""font-size:60px;"">+</div>","null","html-keyboard-response","124","117632","0.0-6.0-0.59","RHGA","1","f","rechts","19","","fixation","","","",""
"1081","img/150_240.png","70","image-keyboard-response","125","118713","0.0-6.0-1.59","RHGA","1","f","rechts","19","","","object","j","150","false"
"null","<div style=""font-size:60px;"">+</div>","null","html-keyboard-response","126","119214","0.0-6.0-0.60","RHGA","1","f","rechts","19","","fixation","","","",""
"858","img/150_300.png","74","image-keyboard-response","127","120073","0.0-6.0-1.60","RHGA","1","f","rechts","19","","","object","j","150","true"
"null","<div style=""font-size:60px;"">+</div>","null","html-keyboard-response","128","120575","0.0-6.0-0.61","RHGA","1","f","rechts","19","","fixation","","","",""
"1268","img/0_330.png","74","image-keyboard-response","129","121844","0.0-6.0-1.61","RHGA","1","f","rechts","19","","","object","f","0","false"
"null","<div style=""font-size:60px;"">+</div>","null","html-keyboard-response","130","122346","0.0-6.0-0.62","RHGA","1","f","rechts","19","","fixation","","","",""
"733","img/60_150.png","74","image-keyboard-response","131","123080","0.0-6.0-1.62","RHGA","1","f","rechts","19","","","object","j","60","true"
"null","<div style=""font-size:60px;"">+</div>","null","html-keyboard-response","132","123432","0.0-6.0-0.63","RHGA","1","f","rechts","19","","fixation","","","",""
"1064","img/0_120.png","74","image-keyboard-response","133","124496","0.0-6.0-1.63","RHGA","1","f","rechts","19","","","object","j","0","true"
"null","<div style=""font-size:60px;"">+</div>","null","html-keyboard-response","134","124847","0.0-6.0-0.64","RHGA","1","f","rechts","19","","fixation","","","",""
"816","img/90_210.png","70","image-keyboard-response","135","125664","0.0-6.0-1.64","RHGA","1","f","rechts","19","","","object","f","90","true"
"null","<div style=""font-size:60px;"">+</div>","null","html-keyboard-response","136","125966","0.0-6.0-0.65","RHGA","1","f","rechts","19","","fixation","","","",""
"714","img/30_60.png","74","image-keyboard-response","137","126680","0.0-6.0-1.65","RHGA","1","f","rechts","19","","","object","j","30","true"
"null","<div style=""font-size:60px;"">+</div>","null","html-keyboard-response","138","127130","0.0-6.0-0.66","RHGA","1","f","rechts","19","","fixation","","","",""
"622","img/0_270.png","70","image-keyboard-response","139","127753","0.0-6.0-1.66","RHGA","1","f","rechts","19","","","object","f","0","true"
"null","<div style=""font-size:60px;"">+</div>","null","html-keyboard-response","140","128104","0.0-6.0-0.67","RHGA","1","f","rechts","19","","fixation","","","",""
"802","img/30_120.png","74","image-keyboard-response","141","128907","0.0-6.0-1.67","RHGA","1","f","rechts","19","","","object","j","30","true"
"null","<div style=""font-size:60px;"">+</div>","null","html-keyboard-response","142","129209","0.0-6.0-0.68","RHGA","1","f","rechts","19","","fixation","","","",""
"842","img/L30_180.png","74","image-keyboard-response","143","130051","0.0-6.0-1.68","RHGA","1","f","rechts","19","","","object","j","30","true"
"null","<div style=""font-size:60px;"">+</div>","null","html-keyboard-response","144","130503","0.0-6.0-0.69","RHGA","1","f","rechts","19","","fixation","","","",""
"982","img/150_60.png","74","image-keyboard-response","145","131486","0.0-6.0-1.69","RHGA","1","f","rechts","19","","","object","f","150","false"
"null","<div style=""font-size:60px;"">+</div>","null","html-keyboard-response","146","131786","0.0-6.0-0.70","RHGA","1","f","rechts","19","","fixation","","","",""
"934","img/90_180.png","70","image-keyboard-response","147","132721","0.0-6.0-1.70","RHGA","1","f","rechts","19","","","object","f","90","true"
"null","<div style=""font-size:60px;"">+</div>","null","html-keyboard-response","148","133221","0.0-6.0-0.71","RHGA","1","f","rechts","19","","fixation","","","",""
"785","img/0_300.png","70","image-keyboard-response","149","134007","0.0-6.0-1.71","RHGA","1","f","rechts","19","","","object","f","0","true"
"null","<div style=""font-size:60px;"">+</div>","null","html-keyboard-response","150","134408","0.0-6.0-0.72","RHGA","1","f","rechts","19","","fixation","","","",""
"824","img/120_180.png","70","image-keyboard-response","151","135234","0.0-6.0-1.72","RHGA","1","f","rechts","19","","","object","f","120","true"
"null","<div style=""font-size:60px;"">+</div>","null","html-keyboard-response","152","135592","0.0-6.0-0.73","RHGA","1","f","rechts","19","","fixation","","","",""
"809","img/30_240.png","70","image-keyboard-response","153","136401","0.0-6.0-1.73","RHGA","1","f","rechts","19","","","object","f","30","true"
"null","<div style=""font-size:60px;"">+</div>","null","html-keyboard-response","154","136902","0.0-6.0-0.74","RHGA","1","f","rechts","19","","fixation","","","",""
"677","img/120_270.png","70","image-keyboard-response","155","137580","0.0-6.0-1.74","RHGA","1","f","rechts","19","","","object","j","120","false"
"null","<div style=""font-size:60px;"">+</div>","null","html-keyboard-response","156","138031","0.0-6.0-0.75","RHGA","1","f","rechts","19","","fixation","","","",""
"743","img/90_150.png","74","image-keyboard-response","157","138775","0.0-6.0-1.75","RHGA","1","f","rechts","19","","","object","j","90","true"
"null","<div style=""font-size:60px;"">+</div>","null","html-keyboard-response","158","139125","0.0-6.0-0.76","RHGA","1","f","rechts","19","","fixation","","","",""
"665","img/60_210.png","70","image-keyboard-response","159","139791","0.0-6.0-1.76","RHGA","1","f","rechts","19","","","object","f","60","true"
"null","<div style=""font-size:60px;"">+</div>","null","html-keyboard-response","160","140142","0.0-6.0-0.77","RHGA","1","f","rechts","19","","fixation","","","",""
"720","img/30_90.png","74","image-keyboard-response","161","140863","0.0-6.0-1.77","RHGA","1","f","rechts","19","","","object","j","30","true"
"null","<div style=""font-size:60px;"">+</div>","null","html-keyboard-response","162","141214","0.0-6.0-0.78","RHGA","1","f","rechts","19","","fixation","","","",""
"573","img/L90_180.png","74","image-keyboard-response","163","141788","0.0-6.0-1.78","RHGA","1","f","rechts","19","","","object","j","90","true"
"null","<div style=""font-size:60px;"">+</div>","null","html-keyboard-response","164","142139","0.0-6.0-0.79","RHGA","1","f","rechts","19","","fixation","","","",""
"587","img/120_150.png","74","image-keyboard-response","165","142727","0.0-6.0-1.79","RHGA","1","f","rechts","19","","","object","j","120","true"
"null","<div style=""font-size:60px;"">+</div>","null","html-keyboard-response","166","143078","0.0-6.0-0.80","RHGA","1","f","rechts","19","","fixation","","","",""
"520","img/120_330.png","70","image-keyboard-response","167","143598","0.0-6.0-1.80","RHGA","1","f","rechts","19","","","object","j","120","false"
"null","<div style=""font-size:60px;"">+</div>","null","html-keyboard-response","168","143999","0.0-6.0-0.81","RHGA","1","f","rechts","19","","fixation","","","",""
"653","img/0_210.png","70","image-keyboard-response","169","144653","0.0-6.0-1.81","RHGA","1","f","rechts","19","","","object","f","0","true"
"null","<div style=""font-size:60px;"">+</div>","null","html-keyboard-response","170","145154","0.0-6.0-0.82","RHGA","1","f","rechts","19","","fixation","","","",""
"575","img/L60_180.png","74","image-keyboard-response","171","145730","0.0-6.0-1.82","RHGA","1","f","rechts","19","","","object","j","60","true"
"null","<div style=""font-size:60px;"">+</div>","null","html-keyboard-response","172","146080","0.0-6.0-0.83","RHGA","1","f","rechts","19","","fixation","","","",""
"562","img/60_270.png","70","image-keyboard-response","173","146643","0.0-6.0-1.83","RHGA","1","f","rechts","19","","","object","f","60","true"
"null","<div style=""font-size:60px;"">+</div>","null","html-keyboard-response","174","147095","0.0-6.0-0.84","RHGA","1","f","rechts","19","","fixation","","","",""
"511","img/60_330.png","70","image-keyboard-response","175","147606","0.0-6.0-1.84","RHGA","1","f","rechts","19","","","object","j","60","false"
"null","<div style=""font-size:60px;"">+</div>","null","html-keyboard-response","176","148108","0.0-6.0-0.85","RHGA","1","f","rechts","19","","fixation","","","",""
"575","img/60_30.png","74","image-keyboard-response","177","148684","0.0-6.0-1.85","RHGA","1","f","rechts","19","","","object","f","60","false"
"null","<div style=""font-size:60px;"">+</div>","null","html-keyboard-response","178","148986","0.0-6.0-0.86","RHGA","1","f","rechts","19","","fixation","","","",""
"540","img/30_180.png","70","image-keyboard-response","179","149526","0.0-6.0-1.86","RHGA","1","f","rechts","19","","","object","f","30","true"
"null","<div style=""font-size:60px;"">+</div>","null","html-keyboard-response","180","149927","0.0-6.0-0.87","RHGA","1","f","rechts","19","","fixation","","","",""
"539","img/90_60.png","74","image-keyboard-response","181","150466","0.0-6.0-1.87","RHGA","1","f","rechts","19","","","object","f","90","false"
"null","<div style=""font-size:60px;"">+</div>","null","html-keyboard-response","182","150766","0.0-6.0-0.88","RHGA","1","f","rechts","19","","fixation","","","",""
"404","img/0_90.png","70","image-keyboard-response","183","151171","0.0-6.0-1.88","RHGA","1","f","rechts","19","","","object","j","0","false"
"null","<div style=""font-size:60px;"">+</div>","null","html-keyboard-response","184","151672","0.0-6.0-0.89","RHGA","1","f","rechts","19","","fixation","","","",""
"727","img/90_120.png","74","image-keyboard-response","185","152400","0.0-6.0-1.89","RHGA","1","f","rechts","19","","","object","j","90","true"
"null","<div style=""font-size:60px;"">+</div>","null","html-keyboard-response","186","152850","0.0-6.0-0.90","RHGA","1","f","rechts","19","","fixation","","","",""
"546","img/120_90.png","74","image-keyboard-response","187","153397","0.0-6.0-1.90","RHGA","1","f","rechts","19","","","object","f","120","false"
"null","<div style=""font-size:60px;"">+</div>","null","html-keyboard-response","188","153799","0.0-6.0-0.91","RHGA","1","f","rechts","19","","fixation","","","",""
"525","img/L120_180.png","74","image-keyboard-response","189","154324","0.0-6.0-1.91","RHGA","1","f","rechts","19","","","object","j","120","true"
"null","<div style=""font-size:60px;"">+</div>","null","html-keyboard-response","190","154775","0.0-6.0-0.92","RHGA","1","f","rechts","19","","fixation","","","",""
"508","img/120_30.png","74","image-keyboard-response","191","155283","0.0-6.0-1.92","RHGA","1","f","rechts","19","","","object","f","120","false"
"null","<div style=""font-size:60px;"">+</div>","null","html-keyboard-response","192","155584","0.0-6.0-0.93","RHGA","1","f","rechts","19","","fixation","","","",""
"710","img/0_60.png","74","image-keyboard-response","193","156295","0.0-6.0-1.93","RHGA","1","f","rechts","19","","","object","j","0","true"
"null","<div style=""font-size:60px;"">+</div>","null","html-keyboard-response","194","156747","0.0-6.0-0.94","RHGA","1","f","rechts","19","","fixation","","","",""
"578","img/150_270.png","70","image-keyboard-response","195","157326","0.0-6.0-1.94","RHGA","1","f","rechts","19","","","object","j","150","false"
"null","<div style=""font-size:60px;"">+</div>","null","html-keyboard-response","196","157676","0.0-6.0-0.95","RHGA","1","f","rechts","19","","fixation","","","",""
"644","img/150_120.png","74","image-keyboard-response","197","158322","0.0-6.0-1.95","RHGA","1","f","rechts","19","","","object","f","150","false"
"null","<div style=""font-size:60px;"">+</div>","null","html-keyboard-response","198","158823","0.0-6.0-0.96","RHGA","1","f","rechts","19","","fixation","","","",""
"473","img/90_300.png","70","image-keyboard-response","199","159296","0.0-6.0-1.96","RHGA","1","f","rechts","19","","","object","j","90","false"
"null","<div style=""font-size:60px;"">+</div>","null","html-keyboard-response","200","159647","0.0-6.0-0.97","RHGA","1","f","rechts","19","","fixation","","","",""
"589","img/150_180.png","70","image-keyboard-response","201","160237","0.0-6.0-1.97","RHGA","1","f","rechts","19","","","object","f","150","true"
"null","<div style=""font-size:60px;"">+</div>","null","html-keyboard-response","202","160739","0.0-6.0-0.98","RHGA","1","f","rechts","19","","fixation","","","",""
"613","img/0_30.png","74","image-keyboard-response","203","161352","0.0-6.0-1.98","RHGA","1","f","rechts","19","","","object","j","0","true"
"null","<div style=""font-size:60px;"">+</div>","null","html-keyboard-response","204","161803","0.0-6.0-0.99","RHGA","1","f","rechts","19","","fixation","","","",""
"604","img/120_210.png","70","image-keyboard-response","205","162407","0.0-6.0-1.99","RHGA","1","f","rechts","19","","","object","f","120","true"
"null","<div style=""font-size:60px;"">+</div>","null","html-keyboard-response","206","162759","0.0-6.0-0.100","RHGA","1","f","rechts","19","","fixation","","","",""
"591","img/L150_180.png","74","image-keyboard-response","207","163352","0.0-6.0-1.100","RHGA","1","f","rechts","19","","","object","j","150","true"
"null","<div style=""font-size:60px;"">+</div>","null","html-keyboard-response","208","163653","0.0-6.0-0.101","RHGA","1","f","rechts","19","","fixation","","","",""
"1086","img/150_90.png","70","image-keyboard-response","209","164740","0.0-6.0-1.101","RHGA","1","f","rechts","19","","","object","f","150","true"
"null","<div style=""font-size:60px;"">+</div>","null","html-keyboard-response","210","165141","0.0-6.0-0.102","RHGA","1","f","rechts","19","","fixation","","","",""
"627","img/0_240.png","70","image-keyboard-response","211","165768","0.0-6.0-1.102","RHGA","1","f","rechts","19","","","object","f","0","true"
"null","<div style=""font-size:60px;"">+</div>","null","html-keyboard-response","212","166119","0.0-6.0-0.103","RHGA","1","f","rechts","19","","fixation","","","",""
"895","img/60_180.png","70","image-keyboard-response","213","167014","0.0-6.0-1.103","RHGA","1","f","rechts","19","","","object","f","60","true"
"null","<div style=""font-size:60px;"">+</div>","null","html-keyboard-response","214","167514","0.0-6.0-0.104","RHGA","1","f","rechts","19","","fixation","","","",""
"598","img/90_300.png","70","image-keyboard-response","215","168113","0.0-6.0-1.104","RHGA","1","f","rechts","19","","","object","j","90","false"
"null","<div style=""font-size:60px;"">+</div>","null","html-keyboard-response","216","168464","0.0-6.0-0.105","RHGA","1","f","rechts","19","","fixation","","","",""
"776","img/30_90.png","74","image-keyboard-response","217","169241","0.0-6.0-1.105","RHGA","1","f","rechts","19","","","object","j","30","true"
"null","<div style=""font-size:60px;"">+</div>","null","html-keyboard-response","218","169692","0.0-6.0-0.106","RHGA","1","f","rechts","19","","fixation","","","",""
"496","img/90_210.png","70","image-keyboard-response","219","170189","0.0-6.0-1.106","RHGA","1","f","rechts","19","","","object","f","90","true"
"null","<div style=""font-size:60px;"">+</div>","null","html-keyboard-response","220","170491","0.0-6.0-0.107","RHGA","1","f","rechts","19","","fixation","","","",""
"592","img/90_150.png","74","image-keyboard-response","221","171083","0.0-6.0-1.107","RHGA","1","f","rechts","19","","","object","j","90","true"
"null","<div style=""font-size:60px;"">+</div>","null","html-keyboard-response","222","171535","0.0-6.0-0.108","RHGA","1","f","rechts","19","","fixation","","","",""
"557","img/0_210.png","70","image-keyboard-response","223","172092","0.0-6.0-1.108","RHGA","1","f","rechts","19","","","object","f","0","true"
"null","<div style=""font-size:60px;"">+</div>","null","html-keyboard-response","224","172393","0.0-6.0-0.109","RHGA","1","f","rechts","19","","fixation","","","",""
"605","img/90_30.png","74","image-keyboard-response","225","173000","0.0-6.0-1.109","RHGA","1","f","rechts","19","","","object","f","90","false"
"null","<div style=""font-size:60px;"">+</div>","null","html-keyboard-response","226","173350","0.0-6.0-0.110","RHGA","1","f","rechts","19","","fixation","","","",""
"768","img/L60_180.png","74","image-keyboard-response","227","174120","0.0-6.0-1.110","RHGA","1","f","rechts","19","","","object","j","60","true"
"null","<div style=""font-size:60px;"">+</div>","null","html-keyboard-response","228","174621","0.0-6.0-0.111","RHGA","1","f","rechts","19","","fixation","","","",""
"707","img/0_60.png","74","image-keyboard-response","229","175329","0.0-6.0-1.111","RHGA","1","f","rechts","19","","","object","j","0","true"
"null","<div style=""font-size:60px;"">+</div>","null","html-keyboard-response","230","175730","0.0-6.0-0.112","RHGA","1","f","rechts","19","","fixation","","","",""
"553","img/L120_180.png","74","image-keyboard-response","231","176284","0.0-6.0-1.112","RHGA","1","f","rechts","19","","","object","j","120","true"
"null","<div style=""font-size:60px;"">+</div>","null","html-keyboard-response","232","176785","0.0-6.0-0.113","RHGA","1","f","rechts","19","","fixation","","","",""
"540","img/120_30.png","74","image-keyboard-response","233","177326","0.0-6.0-1.113","RHGA","1","f","rechts","19","","","object","f","120","false"
"null","<div style=""font-size:60px;"">+</div>","null","html-keyboard-response","234","177627","0.0-6.0-0.114","RHGA","1","f","rechts","19","","fixation","","","",""
"733","img/0_90.png","74","image-keyboard-response","235","178361","0.0-6.0-1.114","RHGA","1","f","rechts","19","","","object","j","0","true"
"null","<div style=""font-size:60px;"">+</div>","null","html-keyboard-response","236","178662","0.0-6.0-0.115","RHGA","1","f","rechts","19","","fixation","","","",""
"966","img/150_270.png","74","image-keyboard-response","237","179629","0.0-6.0-1.115","RHGA","1","f","rechts","19","","","object","j","150","true"
"null","<div style=""font-size:60px;"">+</div>","null","html-keyboard-response","238","179930","0.0-6.0-0.116","RHGA","1","f","rechts","19","","fixation","","","",""
"1186","img/90_180.png","74","image-keyboard-response","239","181116","0.0-6.0-1.116","RHGA","1","f","rechts","19","","","object","f","90","false"
"null","<div style=""font-size:60px;"">+</div>","null","html-keyboard-response","240","181417","0.0-6.0-0.117","RHGA","1","f","rechts","19","","fixation","","","",""
"640","img/30_270.png","70","image-keyboard-response","241","182058","0.0-6.0-1.117","RHGA","1","f","rechts","19","","","object","f","30","true"
"null","<div style=""font-size:60px;"">+</div>","null","html-keyboard-response","242","182359","0.0-6.0-0.118","RHGA","1","f","rechts","19","","fixation","","","",""
"877","img/90_330.png","74","image-keyboard-response","243","183238","0.0-6.0-1.118","RHGA","1","f","rechts","19","","","object","j","90","true"
"null","<div style=""font-size:60px;"">+</div>","null","html-keyboard-response","244","183538","0.0-6.0-0.119","RHGA","1","f","rechts","19","","fixation","","","",""
"1066","img/L90_180.png","74","image-keyboard-response","245","184605","0.0-6.0-1.119","RHGA","1","f","rechts","19","","","object","j","90","true"
"null","<div style=""font-size:60px;"">+</div>","null","html-keyboard-response","246","184907","0.0-6.0-0.120","RHGA","1","f","rechts","19","","fixation","","","",""
"910","img/150_60.png","74","image-keyboard-response","247","185817","0.0-6.0-1.120","RHGA","1","f","rechts","19","","","object","f","150","false"
"null","<div style=""font-size:60px;"">+</div>","null","html-keyboard-response","248","186169","0.0-6.0-0.121","RHGA","1","f","rechts","19","","fixation","","","",""
"663","img/0_330.png","70","image-keyboard-response","249","186833","0.0-6.0-1.121","RHGA","1","f","rechts","19","","","object","f","0","true"
"null","<div style=""font-size:60px;"">+</div>","null","html-keyboard-response","250","187185","0.0-6.0-0.122","RHGA","1","f","rechts","19","","fixation","","","",""
"606","img/60_330.png","70","image-keyboard-response","251","187792","0.0-6.0-1.122","RHGA","1","f","rechts","19","","","object","j","60","false"
"null","<div style=""font-size:60px;"">+</div>","null","html-keyboard-response","252","188193","0.0-6.0-0.123","RHGA","1","f","rechts","19","","fixation","","","",""
"743","img/150_90.png","74","image-keyboard-response","253","188937","0.0-6.0-1.123","RHGA","1","f","rechts","19","","","object","f","150","false"
"null","<div style=""font-size:60px;"">+</div>","null","html-keyboard-response","254","189389","0.0-6.0-0.124","RHGA","1","f","rechts","19","","fixation","","","",""
"618","img/90_60.png","74","image-keyboard-response","255","190007","0.0-6.0-1.124","RHGA","1","f","rechts","19","","","object","f","90","false"
"null","<div style=""font-size:60px;"">+</div>","null","html-keyboard-response","256","190458","0.0-6.0-0.125","RHGA","1","f","rechts","19","","fixation","","","",""
"627","img/120_210.png","70","image-keyboard-response","257","191086","0.0-6.0-1.125","RHGA","1","f","rechts","19","","","object","f","120","true"
"null","<div style=""font-size:60px;"">+</div>","null","html-keyboard-response","258","191538","0.0-6.0-0.126","RHGA","1","f","rechts","19","","fixation","","","",""
"757","img/0_240.png","70","image-keyboard-response","259","192295","0.0-6.0-1.126","RHGA","1","f","rechts","19","","","object","f","0","true"
"null","<div style=""font-size:60px;"">+</div>","null","html-keyboard-response","260","192696","0.0-6.0-0.127","RHGA","1","f","rechts","19","","fixation","","","",""
"676","img/120_330.png","70","image-keyboard-response","261","193373","0.0-6.0-1.127","RHGA","1","f","rechts","19","","","object","j","120","false"
"null","<div style=""font-size:60px;"">+</div>","null","html-keyboard-response","262","193673","0.0-6.0-0.128","RHGA","1","f","rechts","19","","fixation","","","",""
"620","img/60_270.png","70","image-keyboard-response","263","194294","0.0-6.0-1.128","RHGA","1","f","rechts","19","","","object","f","60","true"
"null","<div style=""font-size:60px;"">+</div>","null","html-keyboard-response","264","194695","0.0-6.0-0.129","RHGA","1","f","rechts","19","","fixation","","","",""
"703","img/0_150.png","74","image-keyboard-response","265","195400","0.0-6.0-1.129","RHGA","1","f","rechts","19","","","object","j","0","true"
"null","<div style=""font-size:60px;"">+</div>","null","html-keyboard-response","266","195700","0.0-6.0-0.130","RHGA","1","f","rechts","19","","fixation","","","",""
"722","img/60_90.png","74","image-keyboard-response","267","196423","0.0-6.0-1.130","RHGA","1","f","rechts","19","","","object","j","60","true"
"null","<div style=""font-size:60px;"">+</div>","null","html-keyboard-response","268","196774","0.0-6.0-0.131","RHGA","1","f","rechts","19","","fixation","","","",""
"701","img/60_150.png","74","image-keyboard-response","269","197477","0.0-6.0-1.131","RHGA","1","f","rechts","19","","","object","j","60","true"
"null","<div style=""font-size:60px;"">+</div>","null","html-keyboard-response","270","197929","0.0-6.0-0.132","RHGA","1","f","rechts","19","","fixation","","","",""
"665","img/60_210.png","70","image-keyboard-response","271","198595","0.0-6.0-1.132","RHGA","1","f","rechts","19","","","object","f","60","true"
"null","<div style=""font-size:60px;"">+</div>","null","html-keyboard-response","272","199095","0.0-6.0-0.133","RHGA","1","f","rechts","19","","fixation","","","",""
"499","img/120_90.png","74","image-keyboard-response","273","199595","0.0-6.0-1.133","RHGA","1","f","rechts","19","","","object","f","120","false"
"null","<div style=""font-size:60px;"">+</div>","null","html-keyboard-response","274","199946","0.0-6.0-0.134","RHGA","1","f","rechts","19","","fixation","","","",""
"701","img/0_120.png","74","image-keyboard-response","275","200648","0.0-6.0-1.134","RHGA","1","f","rechts","19","","","object","j","0","true"
"null","<div style=""font-size:60px;"">+</div>","null","html-keyboard-response","276","201049","0.0-6.0-0.135","RHGA","1","f","rechts","19","","fixation","","","",""
"565","img/90_120.png","74","image-keyboard-response","277","201615","0.0-6.0-1.135","RHGA","1","f","rechts","19","","","object","j","90","true"
"null","<div style=""font-size:60px;"">+</div>","null","html-keyboard-response","278","201917","0.0-6.0-0.136","RHGA","1","f","rechts","19","","fixation","","","",""
"698","img/120_270.png","70","image-keyboard-response","279","202616","0.0-6.0-1.136","RHGA","1","f","rechts","19","","","object","j","120","false"
"null","<div style=""font-size:60px;"">+</div>","null","html-keyboard-response","280","202966","0.0-6.0-0.137","RHGA","1","f","rechts","19","","fixation","","","",""
"648","img/30_180.png","70","image-keyboard-response","281","203615","0.0-6.0-1.137","RHGA","1","f","rechts","19","","","object","f","30","true"
"null","<div style=""font-size:60px;"">+</div>","null","html-keyboard-response","282","204116","0.0-6.0-0.138","RHGA","1","f","rechts","19","","fixation","","","",""
"502","img/60_30.png","74","image-keyboard-response","283","204620","0.0-6.0-1.138","RHGA","1","f","rechts","19","","","object","f","60","false"
"null","<div style=""font-size:60px;"">+</div>","null","html-keyboard-response","284","205020","0.0-6.0-0.139","RHGA","1","f","rechts","19","","fixation","","","",""
"569","img/60_180.png","70","image-keyboard-response","285","205590","0.0-6.0-1.139","RHGA","1","f","rechts","19","","","object","f","60","true"
"null","<div style=""font-size:60px;"">+</div>","null","html-keyboard-response","286","206092","0.0-6.0-0.140","RHGA","1","f","rechts","19","","fixation","","","",""
"462","img/0_30.png","74","image-keyboard-response","287","206555","0.0-6.0-1.140","RHGA","1","f","rechts","19","","","object","j","0","true"
"null","<div style=""font-size:60px;"">+</div>","null","html-keyboard-response","288","207056","0.0-6.0-0.141","RHGA","1","f","rechts","19","","fixation","","","",""
"518","img/30_120.png","74","image-keyboard-response","289","207576","0.0-6.0-1.141","RHGA","1","f","rechts","19","","","object","j","30","true"
"null","<div style=""font-size:60px;"">+</div>","null","html-keyboard-response","290","207877","0.0-6.0-0.142","RHGA","1","f","rechts","19","","fixation","","","",""
"629","img/30_300.png","70","image-keyboard-response","291","208507","0.0-6.0-1.142","RHGA","1","f","rechts","19","","","object","f","30","true"
"null","<div style=""font-size:60px;"">+</div>","null","html-keyboard-response","292","208858","0.0-6.0-0.143","RHGA","1","f","rechts","19","","fixation","","","",""
"620","img/30_240.png","70","image-keyboard-response","293","209479","0.0-6.0-1.143","RHGA","1","f","rechts","19","","","object","f","30","true"
"null","<div style=""font-size:60px;"">+</div>","null","html-keyboard-response","294","209930","0.0-6.0-0.144","RHGA","1","f","rechts","19","","fixation","","","",""
"559","img/120_150.png","74","image-keyboard-response","295","210490","0.0-6.0-1.144","RHGA","1","f","rechts","19","","","object","j","120","true"
"null","<div style=""font-size:60px;"">+</div>","null","html-keyboard-response","296","210892","0.0-6.0-0.145","RHGA","1","f","rechts","19","","fixation","","","",""
"656","img/150_300.png","74","image-keyboard-response","297","211549","0.0-6.0-1.145","RHGA","1","f","rechts","19","","","object","j","150","true"
"null","<div style=""font-size:60px;"">+</div>","null","html-keyboard-response","298","212050","0.0-6.0-0.146","RHGA","1","f","rechts","19","","fixation","","","",""
"638","img/90_240.png","74","image-keyboard-response","299","212689","0.0-6.0-1.146","RHGA","1","f","rechts","19","","","object","f","90","false"
"null","<div style=""font-size:60px;"">+</div>","null","html-keyboard-response","300","213091","0.0-6.0-0.147","RHGA","1","f","rechts","19","","fixation","","","",""
"544","img/150_120.png","74","image-keyboard-response","301","213636","0.0-6.0-1.147","RHGA","1","f","rechts","19","","","object","f","150","false"
"null","<div style=""font-size:60px;"">+</div>","null","html-keyboard-response","302","213937","0.0-6.0-0.148","RHGA","1","f","rechts","19","","fixation","","","",""
"868","img/0_300.png","70","image-keyboard-response","303","214806","0.0-6.0-1.148","RHGA","1","f","rechts","19","","","object","f","0","true"
"null","<div style=""font-size:60px;"">+</div>","null","html-keyboard-response","304","215158","0.0-6.0-0.149","RHGA","1","f","rechts","19","","fixation","","","",""
"648","img/0_270.png","70","image-keyboard-response","305","215806","0.0-6.0-1.149","RHGA","1","f","rechts","19","","","object","f","0","true"
"null","<div style=""font-size:60px;"">+</div>","null","html-keyboard-response","306","216107","0.0-6.0-0.150","RHGA","1","f","rechts","19","","fixation","","","",""
"700","img/30_60.png","74","image-keyboard-response","307","216808","0.0-6.0-1.150","RHGA","1","f","rechts","19","","","object","j","30","true"
"null","<div style=""font-size:60px;"">+</div>","null","html-keyboard-response","308","217109","0.0-6.0-0.151","RHGA","1","f","rechts","19","","fixation","","","",""
"778","img/150_240.png","74","image-keyboard-response","309","217888","0.0-6.0-1.151","RHGA","1","f","rechts","19","","","object","j","150","true"
"null","<div style=""font-size:60px;"">+</div>","null","html-keyboard-response","310","218340","0.0-6.0-0.152","RHGA","1","f","rechts","19","","fixation","","","",""
"561","img/150_180.png","74","image-keyboard-response","311","218902","0.0-6.0-1.152","RHGA","1","f","rechts","19","","","object","f","150","false"
"null","<div style=""font-size:60px;"">+</div>","null","html-keyboard-response","312","219403","0.0-6.0-0.153","RHGA","1","f","rechts","19","","fixation","","","",""
"548","img/120_180.png","74","image-keyboard-response","313","219951","0.0-6.0-1.153","RHGA","1","f","rechts","19","","","object","f","120","false"
"null","<div style=""font-size:60px;"">+</div>","null","html-keyboard-response","314","220403","0.0-6.0-0.154","RHGA","1","f","rechts","19","","fixation","","","",""
"604","img/L150_180.png","70","image-keyboard-response","315","221008","0.0-6.0-1.154","RHGA","1","f","rechts","19","","","object","j","150","false"
"null","<div style=""font-size:60px;"">+</div>","null","html-keyboard-response","316","221360","0.0-6.0-0.155","RHGA","1","f","rechts","19","","fixation","","","",""
"704","img/L30_180.png","70","image-keyboard-response","317","222065","0.0-6.0-1.155","RHGA","1","f","rechts","19","","","object","j","30","false"
"null","<div style=""font-size:60px;"">+</div>","null","html-keyboard-response","318","222367","0.0-6.0-0.156","RHGA","1","f","rechts","19","","fixation","","","",""
"850","img/0_270.png","70","image-keyboard-response","319","223217","0.0-6.0-1.156","RHGA","1","f","rechts","19","","","object","f","0","true"
"null","<div style=""font-size:60px;"">+</div>","null","html-keyboard-response","320","223618","0.0-6.0-0.157","RHGA","1","f","rechts","19","","fixation","","","",""
"653","img/0_240.png","70","image-keyboard-response","321","224272","0.0-6.0-1.157","RHGA","1","f","rechts","19","","","object","f","0","true"
"null","<div style=""font-size:60px;"">+</div>","null","html-keyboard-response","322","224624","0.0-6.0-0.158","RHGA","1","f","rechts","19","","fixation","","","",""
"733","img/60_90.png","74","image-keyboard-response","323","225357","0.0-6.0-1.158","RHGA","1","f","rechts","19","","","object","j","60","true"
"null","<div style=""font-size:60px;"">+</div>","null","html-keyboard-response","324","225709","0.0-6.0-0.159","RHGA","1","f","rechts","19","","fixation","","","",""
"661","img/150_60.png","74","image-keyboard-response","325","226370","0.0-6.0-1.159","RHGA","1","f","rechts","19","","","object","f","150","false"
"null","<div style=""font-size:60px;"">+</div>","null","html-keyboard-response","326","226821","0.0-6.0-0.160","RHGA","1","f","rechts","19","","fixation","","","",""
"709","img/0_210.png","70","image-keyboard-response","327","227530","0.0-6.0-1.160","RHGA","1","f","rechts","19","","","object","f","0","true"
"null","<div style=""font-size:60px;"">+</div>","null","html-keyboard-response","328","227931","0.0-6.0-0.161","RHGA","1","f","rechts","19","","fixation","","","",""
"1478","img/120_270.png","74","image-keyboard-response","329","229410","0.0-6.0-1.161","RHGA","1","f","rechts","19","","","object","j","120","true"
"null","<div style=""font-size:60px;"">+</div>","null","html-keyboard-response","330","229811","0.0-6.0-0.162","RHGA","1","f","rechts","19","","fixation","","","",""
"805","img/60_270.png","70","image-keyboard-response","331","230616","0.0-6.0-1.162","RHGA","1","f","rechts","19","","","object","f","60","true"
"null","<div style=""font-size:60px;"">+</div>","null","html-keyboard-response","332","230967","0.0-6.0-0.163","RHGA","1","f","rechts","19","","fixation","","","",""
"586","img/30_300.png","70","image-keyboard-response","333","231554","0.0-6.0-1.163","RHGA","1","f","rechts","19","","","object","f","30","true"
"null","<div style=""font-size:60px;"">+</div>","null","html-keyboard-response","334","232006","0.0-6.0-0.164","RHGA","1","f","rechts","19","","fixation","","","",""
"798","img/L150_180.png","70","image-keyboard-response","335","232805","0.0-6.0-1.164","RHGA","1","f","rechts","19","","","object","j","150","false"
"null","<div style=""font-size:60px;"">+</div>","null","html-keyboard-response","336","233307","0.0-6.0-0.165","RHGA","1","f","rechts","19","","fixation","","","",""
"515","img/30_90.png","74","image-keyboard-response","337","233823","0.0-6.0-1.165","RHGA","1","f","rechts","19","","","object","j","30","true"
"null","<div style=""font-size:60px;"">+</div>","null","html-keyboard-response","338","234323","0.0-6.0-0.166","RHGA","1","f","rechts","19","","fixation","","","",""
"619","img/30_120.png","74","image-keyboard-response","339","234943","0.0-6.0-1.166","RHGA","1","f","rechts","19","","","object","j","30","true"
"null","<div style=""font-size:60px;"">+</div>","null","html-keyboard-response","340","235444","0.0-6.0-0.167","RHGA","1","f","rechts","19","","fixation","","","",""
"597","img/30_180.png","70","image-keyboard-response","341","236043","0.0-6.0-1.167","RHGA","1","f","rechts","19","","","object","f","30","true"
"null","<div style=""font-size:60px;"">+</div>","null","html-keyboard-response","342","236494","0.0-6.0-0.168","RHGA","1","f","rechts","19","","fixation","","","",""
"636","img/120_330.png","70","image-keyboard-response","343","237132","0.0-6.0-1.168","RHGA","1","f","rechts","19","","","object","j","120","false"
"null","<div style=""font-size:60px;"">+</div>","null","html-keyboard-response","344","237632","0.0-6.0-0.169","RHGA","1","f","rechts","19","","fixation","","","",""
"572","img/150_300.png","74","image-keyboard-response","345","238205","0.0-6.0-1.169","RHGA","1","f","rechts","19","","","object","j","150","true"
"null","<div style=""font-size:60px;"">+</div>","null","html-keyboard-response","346","238706","0.0-6.0-0.170","RHGA","1","f","rechts","19","","fixation","","","",""
"559","img/120_90.png","74","image-keyboard-response","347","239266","0.0-6.0-1.170","RHGA","1","f","rechts","19","","","object","f","120","false"
"null","<div style=""font-size:60px;"">+</div>","null","html-keyboard-response","348","239768","0.0-6.0-0.171","RHGA","1","f","rechts","19","","fixation","","","",""
"544","img/0_120.png","74","image-keyboard-response","349","240313","0.0-6.0-1.171","RHGA","1","f","rechts","19","","","object","j","0","true"
"null","<div style=""font-size:60px;"">+</div>","null","html-keyboard-response","350","240613","0.0-6.0-0.172","RHGA","1","f","rechts","19","","fixation","","","",""
"591","img/0_300.png","70","image-keyboard-response","351","241205","0.0-6.0-1.172","RHGA","1","f","rechts","19","","","object","f","0","true"
"null","<div style=""font-size:60px;"">+</div>","null","html-keyboard-response","352","241507","0.0-6.0-0.173","RHGA","1","f","rechts","19","","fixation","","","",""
"801","img/150_120.png","70","image-keyboard-response","353","242309","0.0-6.0-1.173","RHGA","1","f","rechts","19","","","object","f","150","true"
"null","<div style=""font-size:60px;"">+</div>","null","html-keyboard-response","354","242661","0.0-6.0-0.174","RHGA","1","f","rechts","19","","fixation","","","",""
"762","img/90_60.png","70","image-keyboard-response","355","243425","0.0-6.0-1.174","RHGA","1","f","rechts","19","","","object","f","90","true"
"null","<div style=""font-size:60px;"">+</div>","null","html-keyboard-response","356","243826","0.0-6.0-0.175","RHGA","1","f","rechts","19","","fixation","","","",""
"763","img/30_270.png","70","image-keyboard-response","357","244589","0.0-6.0-1.175","RHGA","1","f","rechts","19","","","object","f","30","true"
"null","<div style=""font-size:60px;"">+</div>","null","html-keyboard-response","358","244941","0.0-6.0-0.176","RHGA","1","f","rechts","19","","fixation","","","",""
"667","img/L120_180.png","70","image-keyboard-response","359","245609","0.0-6.0-1.176","RHGA","1","f","rechts","19","","","object","j","120","false"
"null","<div style=""font-size:60px;"">+</div>","null","html-keyboard-response","360","246011","0.0-6.0-0.177","RHGA","1","f","rechts","19","","fixation","","","",""
"708","img/120_210.png","74","image-keyboard-response","361","246720","0.0-6.0-1.177","RHGA","1","f","rechts","19","","","object","f","120","false"
"null","<div style=""font-size:60px;"">+</div>","null","html-keyboard-response","362","247072","0.0-6.0-0.178","RHGA","1","f","rechts","19","","fixation","","","",""
"584","img/150_270.png","74","image-keyboard-response","363","247657","0.0-6.0-1.178","RHGA","1","f","rechts","19","","","object","j","150","true"
"null","<div style=""font-size:60px;"">+</div>","null","html-keyboard-response","364","248109","0.0-6.0-0.179","RHGA","1","f","rechts","19","","fixation","","","",""
"444","img/90_120.png","70","image-keyboard-response","365","248553","0.0-6.0-1.179","RHGA","1","f","rechts","19","","","object","j","90","false"
"null","<div style=""font-size:60px;"">+</div>","null","html-keyboard-response","366","248855","0.0-6.0-0.180","RHGA","1","f","rechts","19","","fixation","","","",""
"1003","img/150_90.png","70","image-keyboard-response","367","249860","0.0-6.0-1.180","RHGA","1","f","rechts","19","","","object","f","150","true"
"null","<div style=""font-size:60px;"">+</div>","null","html-keyboard-response","368","250362","0.0-6.0-0.181","RHGA","1","f","rechts","19","","fixation","","","",""
"845","img/60_210.png","74","image-keyboard-response","369","251208","0.0-6.0-1.181","RHGA","1","f","rechts","19","","","object","f","60","false"
"null","<div style=""font-size:60px;"">+</div>","null","html-keyboard-response","370","251710","0.0-6.0-0.182","RHGA","1","f","rechts","19","","fixation","","","",""
"684","img/90_210.png","70","image-keyboard-response","371","252395","0.0-6.0-1.182","RHGA","1","f","rechts","19","","","object","f","90","true"
"null","<div style=""font-size:60px;"">+</div>","null","html-keyboard-response","372","252696","0.0-6.0-0.183","RHGA","1","f","rechts","19","","fixation","","","",""
"791","img/90_240.png","74","image-keyboard-response","373","253488","0.0-6.0-1.183","RHGA","1","f","rechts","19","","","object","f","90","false"
"null","<div style=""font-size:60px;"">+</div>","null","html-keyboard-response","374","253940","0.0-6.0-0.184","RHGA","1","f","rechts","19","","fixation","","","",""
"582","img/0_30.png","74","image-keyboard-response","375","254524","0.0-6.0-1.184","RHGA","1","f","rechts","19","","","object","j","0","true"
"null","<div style=""font-size:60px;"">+</div>","null","html-keyboard-response","376","254826","0.0-6.0-0.185","RHGA","1","f","rechts","19","","fixation","","","",""
"747","img/60_150.png","74","image-keyboard-response","377","255574","0.0-6.0-1.185","RHGA","1","f","rechts","19","","","object","j","60","true"
"null","<div style=""font-size:60px;"">+</div>","null","html-keyboard-response","378","255874","0.0-6.0-0.186","RHGA","1","f","rechts","19","","fixation","","","",""
"708","img/60_330.png","70","image-keyboard-response","379","256583","0.0-6.0-1.186","RHGA","1","f","rechts","19","","","object","j","60","false"
"null","<div style=""font-size:60px;"">+</div>","null","html-keyboard-response","380","257035","0.0-6.0-0.187","RHGA","1","f","rechts","19","","fixation","","","",""
"627","img/60_180.png","70","image-keyboard-response","381","257663","0.0-6.0-1.187","RHGA","1","f","rechts","19","","","object","f","60","true"
"null","<div style=""font-size:60px;"">+</div>","null","html-keyboard-response","382","258164","0.0-6.0-0.188","RHGA","1","f","rechts","19","","fixation","","","",""
"815","img/L60_180.png","74","image-keyboard-response","383","258980","0.0-6.0-1.188","RHGA","1","f","rechts","19","","","object","j","60","true"
"null","<div style=""font-size:60px;"">+</div>","null","html-keyboard-response","384","259281","0.0-6.0-0.189","RHGA","1","f","rechts","19","","fixation","","","",""
"787","img/L90_180.png","74","image-keyboard-response","385","260069","0.0-6.0-1.189","RHGA","1","f","rechts","19","","","object","j","90","true"
"null","<div style=""font-size:60px;"">+</div>","null","html-keyboard-response","386","260521","0.0-6.0-0.190","RHGA","1","f","rechts","19","","fixation","","","",""
"609","img/150_240.png","70","image-keyboard-response","387","261131","0.0-6.0-1.190","RHGA","1","f","rechts","19","","","object","j","150","false"
"null","<div style=""font-size:60px;"">+</div>","null","html-keyboard-response","388","261583","0.0-6.0-0.191","RHGA","1","f","rechts","19","","fixation","","","",""
"680","img/90_330.png","70","image-keyboard-response","389","262263","0.0-6.0-1.191","RHGA","1","f","rechts","19","","","object","j","90","false"
"null","<div style=""font-size:60px;"">+</div>","null","html-keyboard-response","390","262715","0.0-6.0-0.192","RHGA","1","f","rechts","19","","fixation","","","",""
"614","img/L30_180.png","74","image-keyboard-response","391","263330","0.0-6.0-1.192","RHGA","1","f","rechts","19","","","object","j","30","true"
"null","<div style=""font-size:60px;"">+</div>","null","html-keyboard-response","392","263631","0.0-6.0-0.193","RHGA","1","f","rechts","19","","fixation","","","",""
"687","img/30_60.png","74","image-keyboard-response","393","264320","0.0-6.0-1.193","RHGA","1","f","rechts","19","","","object","j","30","true"
"null","<div style=""font-size:60px;"">+</div>","null","html-keyboard-response","394","264721","0.0-6.0-0.194","RHGA","1","f","rechts","19","","fixation","","","",""
"646","img/90_150.png","74","image-keyboard-response","395","265368","0.0-6.0-1.194","RHGA","1","f","rechts","19","","","object","j","90","true"
"null","<div style=""font-size:60px;"">+</div>","null","html-keyboard-response","396","265669","0.0-6.0-0.195","RHGA","1","f","rechts","19","","fixation","","","",""
"694","img/0_330.png","70","image-keyboard-response","397","266364","0.0-6.0-1.195","RHGA","1","f","rechts","19","","","object","f","0","true"
"null","<div style=""font-size:60px;"">+</div>","null","html-keyboard-response","398","266666","0.0-6.0-0.196","RHGA","1","f","rechts","19","","fixation","","","",""
"691","img/90_300.png","70","image-keyboard-response","399","267358","0.0-6.0-1.196","RHGA","1","f","rechts","19","","","object","j","90","false"
"null","<div style=""font-size:60px;"">+</div>","null","html-keyboard-response","400","267758","0.0-6.0-0.197","RHGA","1","f","rechts","19","","fixation","","","",""
"562","img/0_90.png","74","image-keyboard-response","401","268321","0.0-6.0-1.197","RHGA","1","f","rechts","19","","","object","j","0","true"
"null","<div style=""font-size:60px;"">+</div>","null","html-keyboard-response","402","268822","0.0-6.0-0.198","RHGA","1","f","rechts","19","","fixation","","","",""
"636","img/30_240.png","70","image-keyboard-response","403","269459","0.0-6.0-1.198","RHGA","1","f","rechts","19","","","object","f","30","true"
"null","<div style=""font-size:60px;"">+</div>","null","html-keyboard-response","404","269860","0.0-6.0-0.199","RHGA","1","f","rechts","19","","fixation","","","",""
"663","img/120_150.png","74","image-keyboard-response","405","270524","0.0-6.0-1.199","RHGA","1","f","rechts","19","","","object","j","120","true"
"null","<div style=""font-size:60px;"">+</div>","null","html-keyboard-response","406","270826","0.0-6.0-0.200","RHGA","1","f","rechts","19","","fixation","","","",""
"860","img/120_180.png","74","image-keyboard-response","407","271686","0.0-6.0-1.200","RHGA","1","f","rechts","19","","","object","f","120","false"
"null","<div style=""font-size:60px;"">+</div>","null","html-keyboard-response","408","272037","0.0-6.0-0.201","RHGA","1","f","rechts","19","","fixation","","","",""
"793","img/120_30.png","74","image-keyboard-response","409","272832","0.0-6.0-1.201","RHGA","1","f","rechts","19","","","object","f","120","false"
"null","<div style=""font-size:60px;"">+</div>","null","html-keyboard-response","410","273132","0.0-6.0-0.202","RHGA","1","f","rechts","19","","fixation","","","",""
"1254","img/60_30.png","70","image-keyboard-response","411","274388","0.0-6.0-1.202","RHGA","1","f","rechts","19","","","object","f","60","true"
"null","<div style=""font-size:60px;"">+</div>","null","html-keyboard-response","412","274889","0.0-6.0-0.203","RHGA","1","f","rechts","19","","fixation","","","",""
"794","img/0_150.png","74","image-keyboard-response","413","275683","0.0-6.0-1.203","RHGA","1","f","rechts","19","","","object","j","0","true"
"null","<div style=""font-size:60px;"">+</div>","null","html-keyboard-response","414","276184","0.0-6.0-0.204","RHGA","1","f","rechts","19","","fixation","","","",""
"738","img/90_180.png","70","image-keyboard-response","415","276923","0.0-6.0-1.204","RHGA","1","f","rechts","19","","","object","f","90","true"
"null","<div style=""font-size:60px;"">+</div>","null","html-keyboard-response","416","277224","0.0-6.0-0.205","RHGA","1","f","rechts","19","","fixation","","","",""
"918","img/150_180.png","70","image-keyboard-response","417","278143","0.0-6.0-1.205","RHGA","1","f","rechts","19","","","object","f","150","true"
"null","<div style=""font-size:60px;"">+</div>","null","html-keyboard-response","418","278494","0.0-6.0-0.206","RHGA","1","f","rechts","19","","fixation","","","",""
"584","img/0_60.png","74","image-keyboard-response","419","279079","0.0-6.0-1.206","RHGA","1","f","rechts","19","","","object","j","0","true"
"null","<div style=""font-size:60px;"">+</div>","null","html-keyboard-response","420","279380","0.0-6.0-0.207","RHGA","1","f","rechts","19","","fixation","","","",""
"591","img/90_30.png","74","image-keyboard-response","421","279971","0.0-6.0-1.207","RHGA","1","f","rechts","19","","","object","f","90","false"
"15983","<p>Du hast in 64% der Versuche korrekt entschieden.</p><p>Deine durchschnittliche Reaktionszeit war  745ms.</p><p>Dr&uuml;cke eine beliebige Taste, um die Session zu beenden. Vielen Dank!</p>","71","html-keyboard-response","422","295957","0.0-7.0","RHGA","1","f","rechts","19","","","","","",""
