"rt","stimulus","key_press","trial_type","trial_index","time_elapsed","internal_node_id","subject","session","sex","handedness","age","responses","test_part","condition","correct_response","angle","correct"
"1057","<p>Mental Rotation Experiment.</p> <p>Dr&uuml;cke eine beliebige Taste, um anzufangen.</p>","70","html-keyboard-response","0","1060","0.0-0.0","RHGA","4","f","rechts","19","","","","","",""
"2448","","","survey-text","1","3509","0.0-1.0","RHGA","4","f","rechts","19","{""Q0"":""RHGA""}","","","","",""
"2191","","","survey-text","2","5702","0.0-2.0","RHGA","4","f","rechts","19","{""Q0"":""4""}","","","","",""
"3372","","","survey-multi-choice","3","9076","0.0-3.0","RHGA","4","f","rechts","19","{""Q0"":""f"",""Q1"":""rechts""}","","","","",""
"2494","","","survey-text","4","11572","0.0-4.0","RHGA","4","f","rechts","19","{""Q0"":""19""}","","","","",""
"35610","<p>Stell dir vor, dass du vor einem runden Tisch stehst, auf dem sich ein blauer Ball am Tischrand befindet. Entlang des Tischrands ist jeweils ein verschieden langer Pfeil. Nun bleibst du an deinem Platz vor dem Tisch und rotierst den Tisch entlang des Pfeils (gleiche Richtung und Länge). </p> <img src='img/30_180.png'></img> <br><p> Nachdem du diese (vorgestellte) Rotation durchgef&uuml;hrt hast, schau in Richtung der Tischmitte, und entscheide dann, ob der Ball links oder rechts von dir liegt.</p> <p>Dr&uuml;cke die <strong>'f'</strong>-Taste f&uuml;r links, die <strong>'j'</strong>-Taste f&uuml;r rechts.</p><br><p> Das Bild wird jeweils 1 Sekunde lang pr&auml;sentiert. Du hast 3 Sekunden Zeit eine Entscheidung zu treffen.</p>","74","html-keyboard-response","5","47182","0.0-5.0","RHGA","4","f","rechts","19","","","","","",""
"null","<div style=""font-size:60px;"">+</div>","null","html-keyboard-response","6","48535","0.0-6.0-0.0","RHGA","4","f","rechts","19","","fixation","","","",""
"707","img/90_300.png","74","image-keyboard-response","7","49244","0.0-6.0-1.0","RHGA","4","f","rechts","19","","","object","j","90","true"
"null","<div style=""font-size:60px;"">+</div>","null","html-keyboard-response","8","49596","0.0-6.0-0.1","RHGA","4","f","rechts","19","","fixation","","","",""
"553","img/90_240.png","74","image-keyboard-response","9","50150","0.0-6.0-1.1","RHGA","4","f","rechts","19","","","object","f","90","false"
"null","<div style=""font-size:60px;"">+</div>","null","html-keyboard-response","10","50601","0.0-6.0-0.2","RHGA","4","f","rechts","19","","fixation","","","",""
"776","img/0_270.png","70","image-keyboard-response","11","51379","0.0-6.0-1.2","RHGA","4","f","rechts","19","","","object","f","0","true"
"null","<div style=""font-size:60px;"">+</div>","null","html-keyboard-response","12","51780","0.0-6.0-0.3","RHGA","4","f","rechts","19","","fixation","","","",""
"913","img/60_30.png","74","image-keyboard-response","13","52694","0.0-6.0-1.3","RHGA","4","f","rechts","19","","","object","f","60","false"
"null","<div style=""font-size:60px;"">+</div>","null","html-keyboard-response","14","53045","0.0-6.0-0.4","RHGA","4","f","rechts","19","","fixation","","","",""
"661","img/L150_180.png","70","image-keyboard-response","15","53707","0.0-6.0-1.4","RHGA","4","f","rechts","19","","","object","j","150","false"
"null","<div style=""font-size:60px;"">+</div>","null","html-keyboard-response","16","54158","0.0-6.0-0.5","RHGA","4","f","rechts","19","","fixation","","","",""
"630","img/0_90.png","74","image-keyboard-response","17","54789","0.0-6.0-1.5","RHGA","4","f","rechts","19","","","object","j","0","true"
"null","<div style=""font-size:60px;"">+</div>","null","html-keyboard-response","18","55240","0.0-6.0-0.6","RHGA","4","f","rechts","19","","fixation","","","",""
"795","img/120_330.png","74","image-keyboard-response","19","56036","0.0-6.0-1.6","RHGA","4","f","rechts","19","","","object","j","120","true"
"null","<div style=""font-size:60px;"">+</div>","null","html-keyboard-response","20","56388","0.0-6.0-0.7","RHGA","4","f","rechts","19","","fixation","","","",""
"612","img/120_180.png","74","image-keyboard-response","21","57001","0.0-6.0-1.7","RHGA","4","f","rechts","19","","","object","f","120","false"
"null","<div style=""font-size:60px;"">+</div>","null","html-keyboard-response","22","57502","0.0-6.0-0.8","RHGA","4","f","rechts","19","","fixation","","","",""
"587","img/150_60.png","70","image-keyboard-response","23","58090","0.0-6.0-1.8","RHGA","4","f","rechts","19","","","object","f","150","true"
"null","<div style=""font-size:60px;"">+</div>","null","html-keyboard-response","24","58592","0.0-6.0-0.9","RHGA","4","f","rechts","19","","fixation","","","",""
"766","img/60_180.png","74","image-keyboard-response","25","59359","0.0-6.0-1.9","RHGA","4","f","rechts","19","","","object","f","60","false"
"null","<div style=""font-size:60px;"">+</div>","null","html-keyboard-response","26","59710","0.0-6.0-0.10","RHGA","4","f","rechts","19","","fixation","","","",""
"711","img/0_120.png","74","image-keyboard-response","27","60423","0.0-6.0-1.10","RHGA","4","f","rechts","19","","","object","j","0","true"
"null","<div style=""font-size:60px;"">+</div>","null","html-keyboard-response","28","60724","0.0-6.0-0.11","RHGA","4","f","rechts","19","","fixation","","","",""
"699","img/30_240.png","70","image-keyboard-response","29","61424","0.0-6.0-1.11","RHGA","4","f","rechts","19","","","object","f","30","true"
"null","<div style=""font-size:60px;"">+</div>","null","html-keyboard-response","30","61725","0.0-6.0-0.12","RHGA","4","f","rechts","19","","fixation","","","",""
"654","img/30_180.png","70","image-keyboard-response","31","62379","0.0-6.0-1.12","RHGA","4","f","rechts","19","","","object","f","30","true"
"null","<div style=""font-size:60px;"">+</div>","null","html-keyboard-response","32","62729","0.0-6.0-0.13","RHGA","4","f","rechts","19","","fixation","","","",""
"683","img/30_300.png","70","image-keyboard-response","33","63413","0.0-6.0-1.13","RHGA","4","f","rechts","19","","","object","f","30","true"
"null","<div style=""font-size:60px;"">+</div>","null","html-keyboard-response","34","63915","0.0-6.0-0.14","RHGA","4","f","rechts","19","","fixation","","","",""
"695","img/150_270.png","74","image-keyboard-response","35","64611","0.0-6.0-1.14","RHGA","4","f","rechts","19","","","object","j","150","true"
"null","<div style=""font-size:60px;"">+</div>","null","html-keyboard-response","36","64913","0.0-6.0-0.15","RHGA","4","f","rechts","19","","fixation","","","",""
"692","img/L60_180.png","74","image-keyboard-response","37","65606","0.0-6.0-1.15","RHGA","4","f","rechts","19","","","object","j","60","true"
"null","<div style=""font-size:60px;"">+</div>","null","html-keyboard-response","38","66057","0.0-6.0-0.16","RHGA","4","f","rechts","19","","fixation","","","",""
"758","img/90_180.png","74","image-keyboard-response","39","66816","0.0-6.0-1.16","RHGA","4","f","rechts","19","","","object","f","90","false"
"null","<div style=""font-size:60px;"">+</div>","null","html-keyboard-response","40","67318","0.0-6.0-0.17","RHGA","4","f","rechts","19","","fixation","","","",""
"594","img/L30_180.png","74","image-keyboard-response","41","67914","0.0-6.0-1.17","RHGA","4","f","rechts","19","","","object","j","30","true"
"null","<div style=""font-size:60px;"">+</div>","null","html-keyboard-response","42","68314","0.0-6.0-0.18","RHGA","4","f","rechts","19","","fixation","","","",""
"670","img/0_300.png","70","image-keyboard-response","43","68985","0.0-6.0-1.18","RHGA","4","f","rechts","19","","","object","f","0","true"
"null","<div style=""font-size:60px;"">+</div>","null","html-keyboard-response","44","69485","0.0-6.0-0.19","RHGA","4","f","rechts","19","","fixation","","","",""
"725","img/120_150.png","70","image-keyboard-response","45","70211","0.0-6.0-1.19","RHGA","4","f","rechts","19","","","object","j","120","false"
"null","<div style=""font-size:60px;"">+</div>","null","html-keyboard-response","46","70562","0.0-6.0-0.20","RHGA","4","f","rechts","19","","fixation","","","",""
"593","img/90_150.png","70","image-keyboard-response","47","71156","0.0-6.0-1.20","RHGA","4","f","rechts","19","","","object","j","90","false"
"null","<div style=""font-size:60px;"">+</div>","null","html-keyboard-response","48","71607","0.0-6.0-0.21","RHGA","4","f","rechts","19","","fixation","","","",""
"851","img/60_210.png","70","image-keyboard-response","49","72459","0.0-6.0-1.21","RHGA","4","f","rechts","19","","","object","f","60","true"
"null","<div style=""font-size:60px;"">+</div>","null","html-keyboard-response","50","72860","0.0-6.0-0.22","RHGA","4","f","rechts","19","","fixation","","","",""
"655","img/60_150.png","74","image-keyboard-response","51","73516","0.0-6.0-1.22","RHGA","4","f","rechts","19","","","object","j","60","true"
"null","<div style=""font-size:60px;"">+</div>","null","html-keyboard-response","52","73866","0.0-6.0-0.23","RHGA","4","f","rechts","19","","fixation","","","",""
"704","img/150_180.png","74","image-keyboard-response","53","74571","0.0-6.0-1.23","RHGA","4","f","rechts","19","","","object","f","150","false"
"null","<div style=""font-size:60px;"">+</div>","null","html-keyboard-response","54","74972","0.0-6.0-0.24","RHGA","4","f","rechts","19","","fixation","","","",""
"672","img/0_30.png","74","image-keyboard-response","55","75646","0.0-6.0-1.24","RHGA","4","f","rechts","19","","","object","j","0","true"
"null","<div style=""font-size:60px;"">+</div>","null","html-keyboard-response","56","76047","0.0-6.0-0.25","RHGA","4","f","rechts","19","","fixation","","","",""
"674","img/L120_180.png","70","image-keyboard-response","57","76722","0.0-6.0-1.25","RHGA","4","f","rechts","19","","","object","j","120","false"
"null","<div style=""font-size:60px;"">+</div>","null","html-keyboard-response","58","77072","0.0-6.0-0.26","RHGA","4","f","rechts","19","","fixation","","","",""
"693","img/60_330.png","70","image-keyboard-response","59","77766","0.0-6.0-1.26","RHGA","4","f","rechts","19","","","object","j","60","false"
"null","<div style=""font-size:60px;"">+</div>","null","html-keyboard-response","60","78218","0.0-6.0-0.27","RHGA","4","f","rechts","19","","fixation","","","",""
"592","img/60_90.png","74","image-keyboard-response","61","78811","0.0-6.0-1.27","RHGA","4","f","rechts","19","","","object","j","60","true"
"null","<div style=""font-size:60px;"">+</div>","null","html-keyboard-response","62","79262","0.0-6.0-0.28","RHGA","4","f","rechts","19","","fixation","","","",""
"597","img/30_270.png","70","image-keyboard-response","63","79861","0.0-6.0-1.28","RHGA","4","f","rechts","19","","","object","f","30","true"
"null","<div style=""font-size:60px;"">+</div>","null","html-keyboard-response","64","80261","0.0-6.0-0.29","RHGA","4","f","rechts","19","","fixation","","","",""
"724","img/90_330.png","74","image-keyboard-response","65","80986","0.0-6.0-1.29","RHGA","4","f","rechts","19","","","object","j","90","true"
"null","<div style=""font-size:60px;"">+</div>","null","html-keyboard-response","66","81487","0.0-6.0-0.30","RHGA","4","f","rechts","19","","fixation","","","",""
"653","img/0_240.png","70","image-keyboard-response","67","82141","0.0-6.0-1.30","RHGA","4","f","rechts","19","","","object","f","0","true"
"null","<div style=""font-size:60px;"">+</div>","null","html-keyboard-response","68","82442","0.0-6.0-0.31","RHGA","4","f","rechts","19","","fixation","","","",""
"707","img/30_90.png","74","image-keyboard-response","69","83150","0.0-6.0-1.31","RHGA","4","f","rechts","19","","","object","j","30","true"
"null","<div style=""font-size:60px;"">+</div>","null","html-keyboard-response","70","83450","0.0-6.0-0.32","RHGA","4","f","rechts","19","","fixation","","","",""
"742","img/90_210.png","70","image-keyboard-response","71","84193","0.0-6.0-1.32","RHGA","4","f","rechts","19","","","object","f","90","true"
"null","<div style=""font-size:60px;"">+</div>","null","html-keyboard-response","72","84494","0.0-6.0-0.33","RHGA","4","f","rechts","19","","fixation","","","",""
"608","img/120_90.png","70","image-keyboard-response","73","85104","0.0-6.0-1.33","RHGA","4","f","rechts","19","","","object","f","120","true"
"null","<div style=""font-size:60px;"">+</div>","null","html-keyboard-response","74","85554","0.0-6.0-0.34","RHGA","4","f","rechts","19","","fixation","","","",""
"562","img/150_240.png","74","image-keyboard-response","75","86118","0.0-6.0-1.34","RHGA","4","f","rechts","19","","","object","j","150","true"
"null","<div style=""font-size:60px;"">+</div>","null","html-keyboard-response","76","86618","0.0-6.0-0.35","RHGA","4","f","rechts","19","","fixation","","","",""
"627","img/30_120.png","74","image-keyboard-response","77","87247","0.0-6.0-1.35","RHGA","4","f","rechts","19","","","object","j","30","true"
"null","<div style=""font-size:60px;"">+</div>","null","html-keyboard-response","78","87597","0.0-6.0-0.36","RHGA","4","f","rechts","19","","fixation","","","",""
"840","img/120_210.png","74","image-keyboard-response","79","88439","0.0-6.0-1.36","RHGA","4","f","rechts","19","","","object","f","120","false"
"null","<div style=""font-size:60px;"">+</div>","null","html-keyboard-response","80","88740","0.0-6.0-0.37","RHGA","4","f","rechts","19","","fixation","","","",""
"714","img/150_90.png","70","image-keyboard-response","81","89455","0.0-6.0-1.37","RHGA","4","f","rechts","19","","","object","f","150","true"
"null","<div style=""font-size:60px;"">+</div>","null","html-keyboard-response","82","89857","0.0-6.0-0.38","RHGA","4","f","rechts","19","","fixation","","","",""
"770","img/90_60.png","74","image-keyboard-response","83","90628","0.0-6.0-1.38","RHGA","4","f","rechts","19","","","object","f","90","false"
"null","<div style=""font-size:60px;"">+</div>","null","html-keyboard-response","84","90928","0.0-6.0-0.39","RHGA","4","f","rechts","19","","fixation","","","",""
"615","img/0_60.png","74","image-keyboard-response","85","91544","0.0-6.0-1.39","RHGA","4","f","rechts","19","","","object","j","0","true"
"null","<div style=""font-size:60px;"">+</div>","null","html-keyboard-response","86","91946","0.0-6.0-0.40","RHGA","4","f","rechts","19","","fixation","","","",""
"556","img/90_120.png","74","image-keyboard-response","87","92503","0.0-6.0-1.40","RHGA","4","f","rechts","19","","","object","j","90","true"
"null","<div style=""font-size:60px;"">+</div>","null","html-keyboard-response","88","92805","0.0-6.0-0.41","RHGA","4","f","rechts","19","","fixation","","","",""
"654","img/30_60.png","74","image-keyboard-response","89","93462","0.0-6.0-1.41","RHGA","4","f","rechts","19","","","object","j","30","true"
"null","<div style=""font-size:60px;"">+</div>","null","html-keyboard-response","90","93812","0.0-6.0-0.42","RHGA","4","f","rechts","19","","fixation","","","",""
"634","img/60_270.png","70","image-keyboard-response","91","94447","0.0-6.0-1.42","RHGA","4","f","rechts","19","","","object","f","60","true"
"null","<div style=""font-size:60px;"">+</div>","null","html-keyboard-response","92","94848","0.0-6.0-0.43","RHGA","4","f","rechts","19","","fixation","","","",""
"648","img/0_210.png","70","image-keyboard-response","93","95497","0.0-6.0-1.43","RHGA","4","f","rechts","19","","","object","f","0","true"
"null","<div style=""font-size:60px;"">+</div>","null","html-keyboard-response","94","95948","0.0-6.0-0.44","RHGA","4","f","rechts","19","","fixation","","","",""
"542","img/120_30.png","74","image-keyboard-response","95","96491","0.0-6.0-1.44","RHGA","4","f","rechts","19","","","object","f","120","false"
"null","<div style=""font-size:60px;"">+</div>","null","html-keyboard-response","96","96792","0.0-6.0-0.45","RHGA","4","f","rechts","19","","fixation","","","",""
"775","img/L90_180.png","74","image-keyboard-response","97","97568","0.0-6.0-1.45","RHGA","4","f","rechts","19","","","object","j","90","true"
"null","<div style=""font-size:60px;"">+</div>","null","html-keyboard-response","98","97869","0.0-6.0-0.46","RHGA","4","f","rechts","19","","fixation","","","",""
"629","img/0_150.png","74","image-keyboard-response","99","98499","0.0-6.0-1.46","RHGA","4","f","rechts","19","","","object","j","0","true"
"null","<div style=""font-size:60px;"">+</div>","null","html-keyboard-response","100","98851","0.0-6.0-0.47","RHGA","4","f","rechts","19","","fixation","","","",""
"692","img/150_300.png","74","image-keyboard-response","101","99544","0.0-6.0-1.47","RHGA","4","f","rechts","19","","","object","j","150","true"
"null","<div style=""font-size:60px;"">+</div>","null","html-keyboard-response","102","99845","0.0-6.0-0.48","RHGA","4","f","rechts","19","","fixation","","","",""
"658","img/120_270.png","74","image-keyboard-response","103","100505","0.0-6.0-1.48","RHGA","4","f","rechts","19","","","object","j","120","true"
"null","<div style=""font-size:60px;"">+</div>","null","html-keyboard-response","104","100905","0.0-6.0-0.49","RHGA","4","f","rechts","19","","fixation","","","",""
"625","img/150_120.png","70","image-keyboard-response","105","101531","0.0-6.0-1.49","RHGA","4","f","rechts","19","","","object","f","150","true"
"null","<div style=""font-size:60px;"">+</div>","null","html-keyboard-response","106","102032","0.0-6.0-0.50","RHGA","4","f","rechts","19","","fixation","","","",""
"614","img/0_330.png","70","image-keyboard-response","107","102647","0.0-6.0-1.50","RHGA","4","f","rechts","19","","","object","f","0","true"
"null","<div style=""font-size:60px;"">+</div>","null","html-keyboard-response","108","103149","0.0-6.0-0.51","RHGA","4","f","rechts","19","","fixation","","","",""
"617","img/90_30.png","70","image-keyboard-response","109","103767","0.0-6.0-1.51","RHGA","4","f","rechts","19","","","object","f","90","true"
"null","<div style=""font-size:60px;"">+</div>","null","html-keyboard-response","110","104069","0.0-6.0-0.52","RHGA","4","f","rechts","19","","fixation","","","",""
"585","img/150_90.png","70","image-keyboard-response","111","104654","0.0-6.0-1.52","RHGA","4","f","rechts","19","","","object","f","150","true"
"null","<div style=""font-size:60px;"">+</div>","null","html-keyboard-response","112","105155","0.0-6.0-0.53","RHGA","4","f","rechts","19","","fixation","","","",""
"566","img/120_150.png","70","image-keyboard-response","113","105722","0.0-6.0-1.53","RHGA","4","f","rechts","19","","","object","j","120","false"
"null","<div style=""font-size:60px;"">+</div>","null","html-keyboard-response","114","106224","0.0-6.0-0.54","RHGA","4","f","rechts","19","","fixation","","","",""
"689","img/0_30.png","74","image-keyboard-response","115","106914","0.0-6.0-1.54","RHGA","4","f","rechts","19","","","object","j","0","true"
"null","<div style=""font-size:60px;"">+</div>","null","html-keyboard-response","116","107365","0.0-6.0-0.55","RHGA","4","f","rechts","19","","fixation","","","",""
"738","img/0_210.png","70","image-keyboard-response","117","108103","0.0-6.0-1.55","RHGA","4","f","rechts","19","","","object","f","0","true"
"null","<div style=""font-size:60px;"">+</div>","null","html-keyboard-response","118","108503","0.0-6.0-0.56","RHGA","4","f","rechts","19","","fixation","","","",""
"662","img/30_120.png","74","image-keyboard-response","119","109166","0.0-6.0-1.56","RHGA","4","f","rechts","19","","","object","j","30","true"
"null","<div style=""font-size:60px;"">+</div>","null","html-keyboard-response","120","109568","0.0-6.0-0.57","RHGA","4","f","rechts","19","","fixation","","","",""
"660","img/90_120.png","70","image-keyboard-response","121","110228","0.0-6.0-1.57","RHGA","4","f","rechts","19","","","object","j","90","false"
"null","<div style=""font-size:60px;"">+</div>","null","html-keyboard-response","122","110680","0.0-6.0-0.58","RHGA","4","f","rechts","19","","fixation","","","",""
"602","img/0_150.png","74","image-keyboard-response","123","111282","0.0-6.0-1.58","RHGA","4","f","rechts","19","","","object","j","0","true"
"null","<div style=""font-size:60px;"">+</div>","null","html-keyboard-response","124","111583","0.0-6.0-0.59","RHGA","4","f","rechts","19","","fixation","","","",""
"674","img/120_330.png","74","image-keyboard-response","125","112259","0.0-6.0-1.59","RHGA","4","f","rechts","19","","","object","j","120","true"
"null","<div style=""font-size:60px;"">+</div>","null","html-keyboard-response","126","112710","0.0-6.0-0.60","RHGA","4","f","rechts","19","","fixation","","","",""
"576","img/120_180.png","74","image-keyboard-response","127","113287","0.0-6.0-1.60","RHGA","4","f","rechts","19","","","object","f","120","false"
"null","<div style=""font-size:60px;"">+</div>","null","html-keyboard-response","128","113638","0.0-6.0-0.61","RHGA","4","f","rechts","19","","fixation","","","",""
"605","img/90_60.png","70","image-keyboard-response","129","114244","0.0-6.0-1.61","RHGA","4","f","rechts","19","","","object","f","90","true"
"null","<div style=""font-size:60px;"">+</div>","null","html-keyboard-response","130","114596","0.0-6.0-0.62","RHGA","4","f","rechts","19","","fixation","","","",""
"620","img/30_60.png","74","image-keyboard-response","131","115217","0.0-6.0-1.62","RHGA","4","f","rechts","19","","","object","j","30","true"
"null","<div style=""font-size:60px;"">+</div>","null","html-keyboard-response","132","115718","0.0-6.0-0.63","RHGA","4","f","rechts","19","","fixation","","","",""
"558","img/30_270.png","70","image-keyboard-response","133","116276","0.0-6.0-1.63","RHGA","4","f","rechts","19","","","object","f","30","true"
"null","<div style=""font-size:60px;"">+</div>","null","html-keyboard-response","134","116578","0.0-6.0-0.64","RHGA","4","f","rechts","19","","fixation","","","",""
"582","img/60_180.png","70","image-keyboard-response","135","117160","0.0-6.0-1.64","RHGA","4","f","rechts","19","","","object","f","60","true"
"null","<div style=""font-size:60px;"">+</div>","null","html-keyboard-response","136","117661","0.0-6.0-0.65","RHGA","4","f","rechts","19","","fixation","","","",""
"579","img/30_240.png","70","image-keyboard-response","137","118240","0.0-6.0-1.65","RHGA","4","f","rechts","19","","","object","f","30","true"
"null","<div style=""font-size:60px;"">+</div>","null","html-keyboard-response","138","118691","0.0-6.0-0.66","RHGA","4","f","rechts","19","","fixation","","","",""
"555","img/L60_180.png","74","image-keyboard-response","139","119247","0.0-6.0-1.66","RHGA","4","f","rechts","19","","","object","j","60","true"
"null","<div style=""font-size:60px;"">+</div>","null","html-keyboard-response","140","119749","0.0-6.0-0.67","RHGA","4","f","rechts","19","","fixation","","","",""
"669","img/120_90.png","70","image-keyboard-response","141","120418","0.0-6.0-1.67","RHGA","4","f","rechts","19","","","object","f","120","true"
"null","<div style=""font-size:60px;"">+</div>","null","html-keyboard-response","142","120920","0.0-6.0-0.68","RHGA","4","f","rechts","19","","fixation","","","",""
"562","img/150_270.png","74","image-keyboard-response","143","121483","0.0-6.0-1.68","RHGA","4","f","rechts","19","","","object","j","150","true"
"null","<div style=""font-size:60px;"">+</div>","null","html-keyboard-response","144","121835","0.0-6.0-0.69","RHGA","4","f","rechts","19","","fixation","","","",""
"517","img/120_30.png","70","image-keyboard-response","145","122352","0.0-6.0-1.69","RHGA","4","f","rechts","19","","","object","f","120","true"
"null","<div style=""font-size:60px;"">+</div>","null","html-keyboard-response","146","122803","0.0-6.0-0.70","RHGA","4","f","rechts","19","","fixation","","","",""
"550","img/L120_180.png","70","image-keyboard-response","147","123354","0.0-6.0-1.70","RHGA","4","f","rechts","19","","","object","j","120","false"
"null","<div style=""font-size:60px;"">+</div>","null","html-keyboard-response","148","123754","0.0-6.0-0.71","RHGA","4","f","rechts","19","","fixation","","","",""
"533","img/150_120.png","70","image-keyboard-response","149","124288","0.0-6.0-1.71","RHGA","4","f","rechts","19","","","object","f","150","true"
"null","<div style=""font-size:60px;"">+</div>","null","html-keyboard-response","150","124588","0.0-6.0-0.72","RHGA","4","f","rechts","19","","fixation","","","",""
"724","img/0_240.png","70","image-keyboard-response","151","125314","0.0-6.0-1.72","RHGA","4","f","rechts","19","","","object","f","0","true"
"null","<div style=""font-size:60px;"">+</div>","null","html-keyboard-response","152","125664","0.0-6.0-0.73","RHGA","4","f","rechts","19","","fixation","","","",""
"719","img/90_150.png","74","image-keyboard-response","153","126385","0.0-6.0-1.73","RHGA","4","f","rechts","19","","","object","j","90","true"
"null","<div style=""font-size:60px;"">+</div>","null","html-keyboard-response","154","126785","0.0-6.0-0.74","RHGA","4","f","rechts","19","","fixation","","","",""
"672","img/0_270.png","70","image-keyboard-response","155","127458","0.0-6.0-1.74","RHGA","4","f","rechts","19","","","object","f","0","true"
"null","<div style=""font-size:60px;"">+</div>","null","html-keyboard-response","156","127859","0.0-6.0-0.75","RHGA","4","f","rechts","19","","fixation","","","",""
"574","img/30_300.png","70","image-keyboard-response","157","128434","0.0-6.0-1.75","RHGA","4","f","rechts","19","","","object","f","30","true"
"null","<div style=""font-size:60px;"">+</div>","null","html-keyboard-response","158","128935","0.0-6.0-0.76","RHGA","4","f","rechts","19","","fixation","","","",""
"589","img/150_300.png","74","image-keyboard-response","159","129525","0.0-6.0-1.76","RHGA","4","f","rechts","19","","","object","j","150","true"
"null","<div style=""font-size:60px;"">+</div>","null","html-keyboard-response","160","130025","0.0-6.0-0.77","RHGA","4","f","rechts","19","","fixation","","","",""
"587","img/0_120.png","74","image-keyboard-response","161","130614","0.0-6.0-1.77","RHGA","4","f","rechts","19","","","object","j","0","true"
"null","<div style=""font-size:60px;"">+</div>","null","html-keyboard-response","162","131126","0.0-6.0-0.78","RHGA","4","f","rechts","19","","fixation","","","",""
"805","img/90_210.png","74","image-keyboard-response","163","131933","0.0-6.0-1.78","RHGA","4","f","rechts","19","","","object","f","90","false"
"null","<div style=""font-size:60px;"">+</div>","null","html-keyboard-response","164","132233","0.0-6.0-0.79","RHGA","4","f","rechts","19","","fixation","","","",""
"702","img/150_240.png","74","image-keyboard-response","165","132936","0.0-6.0-1.79","RHGA","4","f","rechts","19","","","object","j","150","true"
"null","<div style=""font-size:60px;"">+</div>","null","html-keyboard-response","166","133288","0.0-6.0-0.80","RHGA","4","f","rechts","19","","fixation","","","",""
"656","img/0_300.png","70","image-keyboard-response","167","133944","0.0-6.0-1.80","RHGA","4","f","rechts","19","","","object","f","0","true"
"null","<div style=""font-size:60px;"">+</div>","null","html-keyboard-response","168","134395","0.0-6.0-0.81","RHGA","4","f","rechts","19","","fixation","","","",""
"944","img/90_330.png","70","image-keyboard-response","169","135339","0.0-6.0-1.81","RHGA","4","f","rechts","19","","","object","j","90","false"
"null","<div style=""font-size:60px;"">+</div>","null","html-keyboard-response","170","135640","0.0-6.0-0.82","RHGA","4","f","rechts","19","","fixation","","","",""
"681","img/150_60.png","70","image-keyboard-response","171","136322","0.0-6.0-1.82","RHGA","4","f","rechts","19","","","object","f","150","true"
"null","<div style=""font-size:60px;"">+</div>","null","html-keyboard-response","172","136773","0.0-6.0-0.83","RHGA","4","f","rechts","19","","fixation","","","",""
"545","img/30_90.png","74","image-keyboard-response","173","137318","0.0-6.0-1.83","RHGA","4","f","rechts","19","","","object","j","30","true"
"null","<div style=""font-size:60px;"">+</div>","null","html-keyboard-response","174","137819","0.0-6.0-0.84","RHGA","4","f","rechts","19","","fixation","","","",""
"607","img/0_60.png","74","image-keyboard-response","175","138426","0.0-6.0-1.84","RHGA","4","f","rechts","19","","","object","j","0","true"
"null","<div style=""font-size:60px;"">+</div>","null","html-keyboard-response","176","138927","0.0-6.0-0.85","RHGA","4","f","rechts","19","","fixation","","","",""
"575","img/120_210.png","70","image-keyboard-response","177","139502","0.0-6.0-1.85","RHGA","4","f","rechts","19","","","object","f","120","true"
"null","<div style=""font-size:60px;"">+</div>","null","html-keyboard-response","178","139853","0.0-6.0-0.86","RHGA","4","f","rechts","19","","fixation","","","",""
"765","img/L90_180.png","70","image-keyboard-response","179","140619","0.0-6.0-1.86","RHGA","4","f","rechts","19","","","object","j","90","false"
"null","<div style=""font-size:60px;"">+</div>","null","html-keyboard-response","180","141120","0.0-6.0-0.87","RHGA","4","f","rechts","19","","fixation","","","",""
"642","img/30_180.png","70","image-keyboard-response","181","141763","0.0-6.0-1.87","RHGA","4","f","rechts","19","","","object","f","30","true"
"null","<div style=""font-size:60px;"">+</div>","null","html-keyboard-response","182","142215","0.0-6.0-0.88","RHGA","4","f","rechts","19","","fixation","","","",""
"676","img/120_270.png","74","image-keyboard-response","183","142891","0.0-6.0-1.88","RHGA","4","f","rechts","19","","","object","j","120","true"
"null","<div style=""font-size:60px;"">+</div>","null","html-keyboard-response","184","143341","0.0-6.0-0.89","RHGA","4","f","rechts","19","","fixation","","","",""
"720","img/60_30.png","74","image-keyboard-response","185","144062","0.0-6.0-1.89","RHGA","4","f","rechts","19","","","object","f","60","false"
"null","<div style=""font-size:60px;"">+</div>","null","html-keyboard-response","186","144463","0.0-6.0-0.90","RHGA","4","f","rechts","19","","fixation","","","",""
"649","img/90_180.png","70","image-keyboard-response","187","145113","0.0-6.0-1.90","RHGA","4","f","rechts","19","","","object","f","90","true"
"null","<div style=""font-size:60px;"">+</div>","null","html-keyboard-response","188","145513","0.0-6.0-0.91","RHGA","4","f","rechts","19","","fixation","","","",""
"523","img/60_90.png","74","image-keyboard-response","189","146037","0.0-6.0-1.91","RHGA","4","f","rechts","19","","","object","j","60","true"
"null","<div style=""font-size:60px;"">+</div>","null","html-keyboard-response","190","146338","0.0-6.0-0.92","RHGA","4","f","rechts","19","","fixation","","","",""
"754","img/60_270.png","70","image-keyboard-response","191","147092","0.0-6.0-1.92","RHGA","4","f","rechts","19","","","object","f","60","true"
"null","<div style=""font-size:60px;"">+</div>","null","html-keyboard-response","192","147493","0.0-6.0-0.93","RHGA","4","f","rechts","19","","fixation","","","",""
"581","img/60_210.png","70","image-keyboard-response","193","148074","0.0-6.0-1.93","RHGA","4","f","rechts","19","","","object","f","60","true"
"null","<div style=""font-size:60px;"">+</div>","null","html-keyboard-response","194","148375","0.0-6.0-0.94","RHGA","4","f","rechts","19","","fixation","","","",""
"679","img/90_300.png","70","image-keyboard-response","195","149056","0.0-6.0-1.94","RHGA","4","f","rechts","19","","","object","j","90","false"
"null","<div style=""font-size:60px;"">+</div>","null","html-keyboard-response","196","149456","0.0-6.0-0.95","RHGA","4","f","rechts","19","","fixation","","","",""
"615","img/90_240.png","70","image-keyboard-response","197","150072","0.0-6.0-1.95","RHGA","4","f","rechts","19","","","object","f","90","true"
"null","<div style=""font-size:60px;"">+</div>","null","html-keyboard-response","198","150423","0.0-6.0-0.96","RHGA","4","f","rechts","19","","fixation","","","",""
"639","img/150_180.png","74","image-keyboard-response","199","151063","0.0-6.0-1.96","RHGA","4","f","rechts","19","","","object","f","150","false"
"null","<div style=""font-size:60px;"">+</div>","null","html-keyboard-response","200","151564","0.0-6.0-0.97","RHGA","4","f","rechts","19","","fixation","","","",""
"880","img/60_150.png","74","image-keyboard-response","201","152445","0.0-6.0-1.97","RHGA","4","f","rechts","19","","","object","j","60","true"
"null","<div style=""font-size:60px;"">+</div>","null","html-keyboard-response","202","152846","0.0-6.0-0.98","RHGA","4","f","rechts","19","","fixation","","","",""
"653","img/0_330.png","70","image-keyboard-response","203","153500","0.0-6.0-1.98","RHGA","4","f","rechts","19","","","object","f","0","true"
"null","<div style=""font-size:60px;"">+</div>","null","html-keyboard-response","204","154002","0.0-6.0-0.99","RHGA","4","f","rechts","19","","fixation","","","",""
"562","img/60_330.png","70","image-keyboard-response","205","154564","0.0-6.0-1.99","RHGA","4","f","rechts","19","","","object","j","60","false"
"null","<div style=""font-size:60px;"">+</div>","null","html-keyboard-response","206","155065","0.0-6.0-0.100","RHGA","4","f","rechts","19","","fixation","","","",""
"504","img/L30_180.png","74","image-keyboard-response","207","155570","0.0-6.0-1.100","RHGA","4","f","rechts","19","","","object","j","30","true"
"null","<div style=""font-size:60px;"">+</div>","null","html-keyboard-response","208","156021","0.0-6.0-0.101","RHGA","4","f","rechts","19","","fixation","","","",""
"836","img/90_30.png","70","image-keyboard-response","209","156859","0.0-6.0-1.101","RHGA","4","f","rechts","19","","","object","f","90","true"
"null","<div style=""font-size:60px;"">+</div>","null","html-keyboard-response","210","157359","0.0-6.0-0.102","RHGA","4","f","rechts","19","","fixation","","","",""
"554","img/0_90.png","74","image-keyboard-response","211","157914","0.0-6.0-1.102","RHGA","4","f","rechts","19","","","object","j","0","true"
"null","<div style=""font-size:60px;"">+</div>","null","html-keyboard-response","212","158415","0.0-6.0-0.103","RHGA","4","f","rechts","19","","fixation","","","",""
"634","img/L150_180.png","70","image-keyboard-response","213","159049","0.0-6.0-1.103","RHGA","4","f","rechts","19","","","object","j","150","false"
"null","<div style=""font-size:60px;"">+</div>","null","html-keyboard-response","214","159449","0.0-6.0-0.104","RHGA","4","f","rechts","19","","fixation","","","",""
"709","img/L90_180.png","70","image-keyboard-response","215","160159","0.0-6.0-1.104","RHGA","4","f","rechts","19","","","object","j","90","false"
"null","<div style=""font-size:60px;"">+</div>","null","html-keyboard-response","216","160560","0.0-6.0-0.105","RHGA","4","f","rechts","19","","fixation","","","",""
"558","img/0_240.png","74","image-keyboard-response","217","161118","0.0-6.0-1.105","RHGA","4","f","rechts","19","","","object","f","0","false"
"null","<div style=""font-size:60px;"">+</div>","null","html-keyboard-response","218","161468","0.0-6.0-0.106","RHGA","4","f","rechts","19","","fixation","","","",""
"776","img/120_30.png","70","image-keyboard-response","219","162245","0.0-6.0-1.106","RHGA","4","f","rechts","19","","","object","f","120","true"
"null","<div style=""font-size:60px;"">+</div>","null","html-keyboard-response","220","162596","0.0-6.0-0.107","RHGA","4","f","rechts","19","","fixation","","","",""
"588","img/90_300.png","70","image-keyboard-response","221","163185","0.0-6.0-1.107","RHGA","4","f","rechts","19","","","object","j","90","false"
"null","<div style=""font-size:60px;"">+</div>","null","html-keyboard-response","222","163486","0.0-6.0-0.108","RHGA","4","f","rechts","19","","fixation","","","",""
"604","img/90_60.png","74","image-keyboard-response","223","164091","0.0-6.0-1.108","RHGA","4","f","rechts","19","","","object","f","90","false"
"null","<div style=""font-size:60px;"">+</div>","null","html-keyboard-response","224","164542","0.0-6.0-0.109","RHGA","4","f","rechts","19","","fixation","","","",""
"749","img/30_270.png","70","image-keyboard-response","225","165291","0.0-6.0-1.109","RHGA","4","f","rechts","19","","","object","f","30","true"
"null","<div style=""font-size:60px;"">+</div>","null","html-keyboard-response","226","165692","0.0-6.0-0.110","RHGA","4","f","rechts","19","","fixation","","","",""
"709","img/120_330.png","74","image-keyboard-response","227","166401","0.0-6.0-1.110","RHGA","4","f","rechts","19","","","object","j","120","true"
"null","<div style=""font-size:60px;"">+</div>","null","html-keyboard-response","228","166701","0.0-6.0-0.111","RHGA","4","f","rechts","19","","fixation","","","",""
"733","img/0_30.png","74","image-keyboard-response","229","167434","0.0-6.0-1.111","RHGA","4","f","rechts","19","","","object","j","0","true"
"null","<div style=""font-size:60px;"">+</div>","null","html-keyboard-response","230","167885","0.0-6.0-0.112","RHGA","4","f","rechts","19","","fixation","","","",""
"704","img/90_330.png","74","image-keyboard-response","231","168590","0.0-6.0-1.112","RHGA","4","f","rechts","19","","","object","j","90","true"
"null","<div style=""font-size:60px;"">+</div>","null","html-keyboard-response","232","168990","0.0-6.0-0.113","RHGA","4","f","rechts","19","","fixation","","","",""
"616","img/30_90.png","74","image-keyboard-response","233","169607","0.0-6.0-1.113","RHGA","4","f","rechts","19","","","object","j","30","true"
"null","<div style=""font-size:60px;"">+</div>","null","html-keyboard-response","234","170108","0.0-6.0-0.114","RHGA","4","f","rechts","19","","fixation","","","",""
"847","img/90_150.png","70","image-keyboard-response","235","170956","0.0-6.0-1.114","RHGA","4","f","rechts","19","","","object","j","90","false"
"null","<div style=""font-size:60px;"">+</div>","null","html-keyboard-response","236","171356","0.0-6.0-0.115","RHGA","4","f","rechts","19","","fixation","","","",""
"614","img/L60_180.png","74","image-keyboard-response","237","171972","0.0-6.0-1.115","RHGA","4","f","rechts","19","","","object","j","60","true"
"null","<div style=""font-size:60px;"">+</div>","null","html-keyboard-response","238","172323","0.0-6.0-0.116","RHGA","4","f","rechts","19","","fixation","","","",""
"586","img/90_30.png","74","image-keyboard-response","239","172911","0.0-6.0-1.116","RHGA","4","f","rechts","19","","","object","f","90","false"
"null","<div style=""font-size:60px;"">+</div>","null","html-keyboard-response","240","173311","0.0-6.0-0.117","RHGA","4","f","rechts","19","","fixation","","","",""
"1005","img/0_120.png","74","image-keyboard-response","241","174317","0.0-6.0-1.117","RHGA","4","f","rechts","19","","","object","j","0","true"
"null","<div style=""font-size:60px;"">+</div>","null","html-keyboard-response","242","174619","0.0-6.0-0.118","RHGA","4","f","rechts","19","","fixation","","","",""
"899","img/150_90.png","70","image-keyboard-response","243","175518","0.0-6.0-1.118","RHGA","4","f","rechts","19","","","object","f","150","true"
"null","<div style=""font-size:60px;"">+</div>","null","html-keyboard-response","244","175819","0.0-6.0-0.119","RHGA","4","f","rechts","19","","fixation","","","",""
"682","img/120_150.png","70","image-keyboard-response","245","176502","0.0-6.0-1.119","RHGA","4","f","rechts","19","","","object","j","120","false"
"null","<div style=""font-size:60px;"">+</div>","null","html-keyboard-response","246","177003","0.0-6.0-0.120","RHGA","4","f","rechts","19","","fixation","","","",""
"584","img/0_90.png","74","image-keyboard-response","247","177589","0.0-6.0-1.120","RHGA","4","f","rechts","19","","","object","j","0","true"
"null","<div style=""font-size:60px;"">+</div>","null","html-keyboard-response","248","177890","0.0-6.0-0.121","RHGA","4","f","rechts","19","","fixation","","","",""
"660","img/30_60.png","74","image-keyboard-response","249","178550","0.0-6.0-1.121","RHGA","4","f","rechts","19","","","object","j","30","true"
"null","<div style=""font-size:60px;"">+</div>","null","html-keyboard-response","250","178951","0.0-6.0-0.122","RHGA","4","f","rechts","19","","fixation","","","",""
"563","img/L150_180.png","70","image-keyboard-response","251","179514","0.0-6.0-1.122","RHGA","4","f","rechts","19","","","object","j","150","false"
"null","<div style=""font-size:60px;"">+</div>","null","html-keyboard-response","252","179916","0.0-6.0-0.123","RHGA","4","f","rechts","19","","fixation","","","",""
"580","img/150_120.png","70","image-keyboard-response","253","180498","0.0-6.0-1.123","RHGA","4","f","rechts","19","","","object","f","150","true"
"null","<div style=""font-size:60px;"">+</div>","null","html-keyboard-response","254","180899","0.0-6.0-0.124","RHGA","4","f","rechts","19","","fixation","","","",""
"577","img/150_240.png","74","image-keyboard-response","255","181477","0.0-6.0-1.124","RHGA","4","f","rechts","19","","","object","j","150","true"
"null","<div style=""font-size:60px;"">+</div>","null","html-keyboard-response","256","181979","0.0-6.0-0.125","RHGA","4","f","rechts","19","","fixation","","","",""
"709","img/90_210.png","74","image-keyboard-response","257","182689","0.0-6.0-1.125","RHGA","4","f","rechts","19","","","object","f","90","false"
"null","<div style=""font-size:60px;"">+</div>","null","html-keyboard-response","258","183140","0.0-6.0-0.126","RHGA","4","f","rechts","19","","fixation","","","",""
"884","img/0_150.png","74","image-keyboard-response","259","184024","0.0-6.0-1.126","RHGA","4","f","rechts","19","","","object","j","0","true"
"null","<div style=""font-size:60px;"">+</div>","null","html-keyboard-response","260","184375","0.0-6.0-0.127","RHGA","4","f","rechts","19","","fixation","","","",""
"620","img/30_240.png","70","image-keyboard-response","261","184995","0.0-6.0-1.127","RHGA","4","f","rechts","19","","","object","f","30","true"
"null","<div style=""font-size:60px;"">+</div>","null","html-keyboard-response","262","185497","0.0-6.0-0.128","RHGA","4","f","rechts","19","","fixation","","","",""
"615","img/0_330.png","74","image-keyboard-response","263","186113","0.0-6.0-1.128","RHGA","4","f","rechts","19","","","object","f","0","false"
"null","<div style=""font-size:60px;"">+</div>","null","html-keyboard-response","264","186463","0.0-6.0-0.129","RHGA","4","f","rechts","19","","fixation","","","",""
"1251","img/90_180.png","74","image-keyboard-response","265","187714","0.0-6.0-1.129","RHGA","4","f","rechts","19","","","object","f","90","false"
"null","<div style=""font-size:60px;"">+</div>","null","html-keyboard-response","266","188165","0.0-6.0-0.130","RHGA","4","f","rechts","19","","fixation","","","",""
"719","img/90_240.png","74","image-keyboard-response","267","188885","0.0-6.0-1.130","RHGA","4","f","rechts","19","","","object","f","90","false"
"null","<div style=""font-size:60px;"">+</div>","null","html-keyboard-response","268","189336","0.0-6.0-0.131","RHGA","4","f","rechts","19","","fixation","","","",""
"670","img/30_120.png","74","image-keyboard-response","269","190006","0.0-6.0-1.131","RHGA","4","f","rechts","19","","","object","j","30","true"
"null","<div style=""font-size:60px;"">+</div>","null","html-keyboard-response","270","190457","0.0-6.0-0.132","RHGA","4","f","rechts","19","","fixation","","","",""
"662","img/L120_180.png","70","image-keyboard-response","271","191121","0.0-6.0-1.132","RHGA","4","f","rechts","19","","","object","j","120","false"
"null","<div style=""font-size:60px;"">+</div>","null","html-keyboard-response","272","191471","0.0-6.0-0.133","RHGA","4","f","rechts","19","","fixation","","","",""
"656","img/60_210.png","74","image-keyboard-response","273","192128","0.0-6.0-1.133","RHGA","4","f","rechts","19","","","object","f","60","false"
"null","<div style=""font-size:60px;"">+</div>","null","html-keyboard-response","274","192529","0.0-6.0-0.134","RHGA","4","f","rechts","19","","fixation","","","",""
"578","img/150_270.png","74","image-keyboard-response","275","193108","0.0-6.0-1.134","RHGA","4","f","rechts","19","","","object","j","150","true"
"null","<div style=""font-size:60px;"">+</div>","null","html-keyboard-response","276","193609","0.0-6.0-0.135","RHGA","4","f","rechts","19","","fixation","","","",""
"536","img/120_180.png","74","image-keyboard-response","277","194147","0.0-6.0-1.135","RHGA","4","f","rechts","19","","","object","f","120","false"
"null","<div style=""font-size:60px;"">+</div>","null","html-keyboard-response","278","194547","0.0-6.0-0.136","RHGA","4","f","rechts","19","","fixation","","","",""
"638","img/60_30.png","70","image-keyboard-response","279","195186","0.0-6.0-1.136","RHGA","4","f","rechts","19","","","object","f","60","true"
"null","<div style=""font-size:60px;"">+</div>","null","html-keyboard-response","280","195587","0.0-6.0-0.137","RHGA","4","f","rechts","19","","fixation","","","",""
"518","img/120_90.png","74","image-keyboard-response","281","196106","0.0-6.0-1.137","RHGA","4","f","rechts","19","","","object","f","120","false"
"null","<div style=""font-size:60px;"">+</div>","null","html-keyboard-response","282","196557","0.0-6.0-0.138","RHGA","4","f","rechts","19","","fixation","","","",""
"595","img/150_60.png","70","image-keyboard-response","283","197154","0.0-6.0-1.138","RHGA","4","f","rechts","19","","","object","f","150","true"
"null","<div style=""font-size:60px;"">+</div>","null","html-keyboard-response","284","197554","0.0-6.0-0.139","RHGA","4","f","rechts","19","","fixation","","","",""
"580","img/L30_180.png","74","image-keyboard-response","285","198135","0.0-6.0-1.139","RHGA","4","f","rechts","19","","","object","j","30","true"
"null","<div style=""font-size:60px;"">+</div>","null","html-keyboard-response","286","198537","0.0-6.0-0.140","RHGA","4","f","rechts","19","","fixation","","","",""
"602","img/60_90.png","74","image-keyboard-response","287","199139","0.0-6.0-1.140","RHGA","4","f","rechts","19","","","object","j","60","true"
"null","<div style=""font-size:60px;"">+</div>","null","html-keyboard-response","288","199540","0.0-6.0-0.141","RHGA","4","f","rechts","19","","fixation","","","",""
"617","img/30_300.png","70","image-keyboard-response","289","200158","0.0-6.0-1.141","RHGA","4","f","rechts","19","","","object","f","30","true"
"null","<div style=""font-size:60px;"">+</div>","null","html-keyboard-response","290","200659","0.0-6.0-0.142","RHGA","4","f","rechts","19","","fixation","","","",""
"585","img/150_180.png","74","image-keyboard-response","291","201246","0.0-6.0-1.142","RHGA","4","f","rechts","19","","","object","f","150","false"
"null","<div style=""font-size:60px;"">+</div>","null","html-keyboard-response","292","201746","0.0-6.0-0.143","RHGA","4","f","rechts","19","","fixation","","","",""
"586","img/60_180.png","70","image-keyboard-response","293","202333","0.0-6.0-1.143","RHGA","4","f","rechts","19","","","object","f","60","true"
"null","<div style=""font-size:60px;"">+</div>","null","html-keyboard-response","294","202634","0.0-6.0-0.144","RHGA","4","f","rechts","19","","fixation","","","",""
"605","img/60_270.png","70","image-keyboard-response","295","203240","0.0-6.0-1.144","RHGA","4","f","rechts","19","","","object","f","60","true"
"null","<div style=""font-size:60px;"">+</div>","null","html-keyboard-response","296","203741","0.0-6.0-0.145","RHGA","4","f","rechts","19","","fixation","","","",""
"510","img/60_150.png","74","image-keyboard-response","297","204251","0.0-6.0-1.145","RHGA","4","f","rechts","19","","","object","j","60","true"
"null","<div style=""font-size:60px;"">+</div>","null","html-keyboard-response","298","204552","0.0-6.0-0.146","RHGA","4","f","rechts","19","","fixation","","","",""
"710","img/60_330.png","70","image-keyboard-response","299","205262","0.0-6.0-1.146","RHGA","4","f","rechts","19","","","object","j","60","false"
"null","<div style=""font-size:60px;"">+</div>","null","html-keyboard-response","300","205614","0.0-6.0-0.147","RHGA","4","f","rechts","19","","fixation","","","",""
"711","img/0_270.png","70","image-keyboard-response","301","206325","0.0-6.0-1.147","RHGA","4","f","rechts","19","","","object","f","0","true"
"null","<div style=""font-size:60px;"">+</div>","null","html-keyboard-response","302","206827","0.0-6.0-0.148","RHGA","4","f","rechts","19","","fixation","","","",""
"541","img/0_300.png","70","image-keyboard-response","303","207369","0.0-6.0-1.148","RHGA","4","f","rechts","19","","","object","f","0","true"
"null","<div style=""font-size:60px;"">+</div>","null","html-keyboard-response","304","207821","0.0-6.0-0.149","RHGA","4","f","rechts","19","","fixation","","","",""
"681","img/120_270.png","74","image-keyboard-response","305","208503","0.0-6.0-1.149","RHGA","4","f","rechts","19","","","object","j","120","true"
"null","<div style=""font-size:60px;"">+</div>","null","html-keyboard-response","306","209005","0.0-6.0-0.150","RHGA","4","f","rechts","19","","fixation","","","",""
"589","img/90_120.png","74","image-keyboard-response","307","209595","0.0-6.0-1.150","RHGA","4","f","rechts","19","","","object","j","90","true"
"null","<div style=""font-size:60px;"">+</div>","null","html-keyboard-response","308","209946","0.0-6.0-0.151","RHGA","4","f","rechts","19","","fixation","","","",""
"693","img/0_60.png","74","image-keyboard-response","309","210640","0.0-6.0-1.151","RHGA","4","f","rechts","19","","","object","j","0","true"
"null","<div style=""font-size:60px;"">+</div>","null","html-keyboard-response","310","211142","0.0-6.0-0.152","RHGA","4","f","rechts","19","","fixation","","","",""
"721","img/150_300.png","74","image-keyboard-response","311","211863","0.0-6.0-1.152","RHGA","4","f","rechts","19","","","object","j","150","true"
"null","<div style=""font-size:60px;"">+</div>","null","html-keyboard-response","312","212164","0.0-6.0-0.153","RHGA","4","f","rechts","19","","fixation","","","",""
"829","img/0_210.png","70","image-keyboard-response","313","212994","0.0-6.0-1.153","RHGA","4","f","rechts","19","","","object","f","0","true"
"null","<div style=""font-size:60px;"">+</div>","null","html-keyboard-response","314","213345","0.0-6.0-0.154","RHGA","4","f","rechts","19","","fixation","","","",""
"744","img/30_180.png","70","image-keyboard-response","315","214090","0.0-6.0-1.154","RHGA","4","f","rechts","19","","","object","f","30","true"
"null","<div style=""font-size:60px;"">+</div>","null","html-keyboard-response","316","214392","0.0-6.0-0.155","RHGA","4","f","rechts","19","","fixation","","","",""
"747","img/120_210.png","74","image-keyboard-response","317","215139","0.0-6.0-1.155","RHGA","4","f","rechts","19","","","object","f","120","false"
"null","<div style=""font-size:60px;"">+</div>","null","html-keyboard-response","318","215490","0.0-6.0-0.156","RHGA","4","f","rechts","19","","fixation","","","",""
"643","img/60_210.png","70","image-keyboard-response","319","216134","0.0-6.0-1.156","RHGA","4","f","rechts","19","","","object","f","60","true"
"null","<div style=""font-size:60px;"">+</div>","null","html-keyboard-response","320","216585","0.0-6.0-0.157","RHGA","4","f","rechts","19","","fixation","","","",""
"539","img/0_150.png","74","image-keyboard-response","321","217124","0.0-6.0-1.157","RHGA","4","f","rechts","19","","","object","j","0","true"
"null","<div style=""font-size:60px;"">+</div>","null","html-keyboard-response","322","217476","0.0-6.0-0.158","RHGA","4","f","rechts","19","","fixation","","","",""
"1113","img/L30_180.png","74","image-keyboard-response","323","218590","0.0-6.0-1.158","RHGA","4","f","rechts","19","","","object","j","30","true"
"null","<div style=""font-size:60px;"">+</div>","null","html-keyboard-response","324","219090","0.0-6.0-0.159","RHGA","4","f","rechts","19","","fixation","","","",""
"590","img/0_330.png","70","image-keyboard-response","325","219682","0.0-6.0-1.159","RHGA","4","f","rechts","19","","","object","f","0","true"
"null","<div style=""font-size:60px;"">+</div>","null","html-keyboard-response","326","220132","0.0-6.0-0.160","RHGA","4","f","rechts","19","","fixation","","","",""
"605","img/120_90.png","74","image-keyboard-response","327","220738","0.0-6.0-1.160","RHGA","4","f","rechts","19","","","object","f","120","false"
"null","<div style=""font-size:60px;"">+</div>","null","html-keyboard-response","328","221189","0.0-6.0-0.161","RHGA","4","f","rechts","19","","fixation","","","",""
"487","img/120_180.png","74","image-keyboard-response","329","221676","0.0-6.0-1.161","RHGA","4","f","rechts","19","","","object","f","120","false"
"null","<div style=""font-size:60px;"">+</div>","null","html-keyboard-response","330","222026","0.0-6.0-0.162","RHGA","4","f","rechts","19","","fixation","","","",""
"640","img/30_180.png","70","image-keyboard-response","331","222667","0.0-6.0-1.162","RHGA","4","f","rechts","19","","","object","f","30","true"
"null","<div style=""font-size:60px;"">+</div>","null","html-keyboard-response","332","223169","0.0-6.0-0.163","RHGA","4","f","rechts","19","","fixation","","","",""
"550","img/60_30.png","74","image-keyboard-response","333","223720","0.0-6.0-1.163","RHGA","4","f","rechts","19","","","object","f","60","false"
"null","<div style=""font-size:60px;"">+</div>","null","html-keyboard-response","334","224121","0.0-6.0-0.164","RHGA","4","f","rechts","19","","fixation","","","",""
"668","img/30_90.png","74","image-keyboard-response","335","224789","0.0-6.0-1.164","RHGA","4","f","rechts","19","","","object","j","30","true"
"null","<div style=""font-size:60px;"">+</div>","null","html-keyboard-response","336","225189","0.0-6.0-0.165","RHGA","4","f","rechts","19","","fixation","","","",""
"726","img/90_30.png","70","image-keyboard-response","337","225916","0.0-6.0-1.165","RHGA","4","f","rechts","19","","","object","f","90","true"
"null","<div style=""font-size:60px;"">+</div>","null","html-keyboard-response","338","226217","0.0-6.0-0.166","RHGA","4","f","rechts","19","","fixation","","","",""
"789","img/30_270.png","70","image-keyboard-response","339","227007","0.0-6.0-1.166","RHGA","4","f","rechts","19","","","object","f","30","true"
"null","<div style=""font-size:60px;"">+</div>","null","html-keyboard-response","340","227458","0.0-6.0-0.167","RHGA","4","f","rechts","19","","fixation","","","",""
"604","img/30_300.png","70","image-keyboard-response","341","228063","0.0-6.0-1.167","RHGA","4","f","rechts","19","","","object","f","30","true"
"null","<div style=""font-size:60px;"">+</div>","null","html-keyboard-response","342","228565","0.0-6.0-0.168","RHGA","4","f","rechts","19","","fixation","","","",""
"580","img/120_150.png","70","image-keyboard-response","343","229146","0.0-6.0-1.168","RHGA","4","f","rechts","19","","","object","j","120","false"
"null","<div style=""font-size:60px;"">+</div>","null","html-keyboard-response","344","229647","0.0-6.0-0.169","RHGA","4","f","rechts","19","","fixation","","","",""
"592","img/30_240.png","70","image-keyboard-response","345","230239","0.0-6.0-1.169","RHGA","4","f","rechts","19","","","object","f","30","true"
"null","<div style=""font-size:60px;"">+</div>","null","html-keyboard-response","346","230639","0.0-6.0-0.170","RHGA","4","f","rechts","19","","fixation","","","",""
"688","img/0_30.png","74","image-keyboard-response","347","231329","0.0-6.0-1.170","RHGA","4","f","rechts","19","","","object","j","0","true"
"null","<div style=""font-size:60px;"">+</div>","null","html-keyboard-response","348","231829","0.0-6.0-0.171","RHGA","4","f","rechts","19","","fixation","","","",""
"655","img/0_120.png","74","image-keyboard-response","349","232485","0.0-6.0-1.171","RHGA","4","f","rechts","19","","","object","j","0","true"
"null","<div style=""font-size:60px;"">+</div>","null","html-keyboard-response","350","232986","0.0-6.0-0.172","RHGA","4","f","rechts","19","","fixation","","","",""
"720","img/30_60.png","74","image-keyboard-response","351","233706","0.0-6.0-1.172","RHGA","4","f","rechts","19","","","object","j","30","true"
"null","<div style=""font-size:60px;"">+</div>","null","html-keyboard-response","352","234007","0.0-6.0-0.173","RHGA","4","f","rechts","19","","fixation","","","",""
"664","img/0_240.png","70","image-keyboard-response","353","234672","0.0-6.0-1.173","RHGA","4","f","rechts","19","","","object","f","0","true"
"null","<div style=""font-size:60px;"">+</div>","null","html-keyboard-response","354","235073","0.0-6.0-0.174","RHGA","4","f","rechts","19","","fixation","","","",""
"638","img/150_270.png","74","image-keyboard-response","355","235713","0.0-6.0-1.174","RHGA","4","f","rechts","19","","","object","j","150","true"
"null","<div style=""font-size:60px;"">+</div>","null","html-keyboard-response","356","236113","0.0-6.0-0.175","RHGA","4","f","rechts","19","","fixation","","","",""
"665","img/90_120.png","70","image-keyboard-response","357","236779","0.0-6.0-1.175","RHGA","4","f","rechts","19","","","object","j","90","false"
"null","<div style=""font-size:60px;"">+</div>","null","html-keyboard-response","358","237280","0.0-6.0-0.176","RHGA","4","f","rechts","19","","fixation","","","",""
"495","img/150_240.png","74","image-keyboard-response","359","237775","0.0-6.0-1.176","RHGA","4","f","rechts","19","","","object","j","150","true"
"null","<div style=""font-size:60px;"">+</div>","null","html-keyboard-response","360","238125","0.0-6.0-0.177","RHGA","4","f","rechts","19","","fixation","","","",""
"568","img/0_270.png","70","image-keyboard-response","361","238695","0.0-6.0-1.177","RHGA","4","f","rechts","19","","","object","f","0","true"
"null","<div style=""font-size:60px;"">+</div>","null","html-keyboard-response","362","239196","0.0-6.0-0.178","RHGA","4","f","rechts","19","","fixation","","","",""
"665","img/90_150.png","74","image-keyboard-response","363","239861","0.0-6.0-1.178","RHGA","4","f","rechts","19","","","object","j","90","true"
"null","<div style=""font-size:60px;"">+</div>","null","html-keyboard-response","364","240362","0.0-6.0-0.179","RHGA","4","f","rechts","19","","fixation","","","",""
"584","img/150_120.png","70","image-keyboard-response","365","240947","0.0-6.0-1.179","RHGA","4","f","rechts","19","","","object","f","150","true"
"null","<div style=""font-size:60px;"">+</div>","null","html-keyboard-response","366","241397","0.0-6.0-0.180","RHGA","4","f","rechts","19","","fixation","","","",""
"607","img/L90_180.png","70","image-keyboard-response","367","242005","0.0-6.0-1.180","RHGA","4","f","rechts","19","","","object","j","90","false"
"null","<div style=""font-size:60px;"">+</div>","null","html-keyboard-response","368","242406","0.0-6.0-0.181","RHGA","4","f","rechts","19","","fixation","","","",""
"704","img/150_90.png","70","image-keyboard-response","369","243111","0.0-6.0-1.181","RHGA","4","f","rechts","19","","","object","f","150","true"
"null","<div style=""font-size:60px;"">+</div>","null","html-keyboard-response","370","243462","0.0-6.0-0.182","RHGA","4","f","rechts","19","","fixation","","","",""
"683","img/L150_180.png","70","image-keyboard-response","371","244145","0.0-6.0-1.182","RHGA","4","f","rechts","19","","","object","j","150","false"
"null","<div style=""font-size:60px;"">+</div>","null","html-keyboard-response","372","244497","0.0-6.0-0.183","RHGA","4","f","rechts","19","","fixation","","","",""
"740","img/90_300.png","70","image-keyboard-response","373","245238","0.0-6.0-1.183","RHGA","4","f","rechts","19","","","object","j","90","false"
"null","<div style=""font-size:60px;"">+</div>","null","html-keyboard-response","374","245639","0.0-6.0-0.184","RHGA","4","f","rechts","19","","fixation","","","",""
"712","img/150_300.png","74","image-keyboard-response","375","246351","0.0-6.0-1.184","RHGA","4","f","rechts","19","","","object","j","150","true"
"null","<div style=""font-size:60px;"">+</div>","null","html-keyboard-response","376","246702","0.0-6.0-0.185","RHGA","4","f","rechts","19","","fixation","","","",""
"580","img/60_270.png","70","image-keyboard-response","377","247283","0.0-6.0-1.185","RHGA","4","f","rechts","19","","","object","f","60","true"
"null","<div style=""font-size:60px;"">+</div>","null","html-keyboard-response","378","247733","0.0-6.0-0.186","RHGA","4","f","rechts","19","","fixation","","","",""
"599","img/60_180.png","70","image-keyboard-response","379","248333","0.0-6.0-1.186","RHGA","4","f","rechts","19","","","object","f","60","true"
"null","<div style=""font-size:60px;"">+</div>","null","html-keyboard-response","380","248834","0.0-6.0-0.187","RHGA","4","f","rechts","19","","fixation","","","",""
"495","img/120_330.png","74","image-keyboard-response","381","249329","0.0-6.0-1.187","RHGA","4","f","rechts","19","","","object","j","120","true"
"null","<div style=""font-size:60px;"">+</div>","null","html-keyboard-response","382","249680","0.0-6.0-0.188","RHGA","4","f","rechts","19","","fixation","","","",""
"607","img/90_180.png","74","image-keyboard-response","383","250288","0.0-6.0-1.188","RHGA","4","f","rechts","19","","","object","f","90","false"
"null","<div style=""font-size:60px;"">+</div>","null","html-keyboard-response","384","250589","0.0-6.0-0.189","RHGA","4","f","rechts","19","","fixation","","","",""
"747","img/120_270.png","74","image-keyboard-response","385","251337","0.0-6.0-1.189","RHGA","4","f","rechts","19","","","object","j","120","true"
"null","<div style=""font-size:60px;"">+</div>","null","html-keyboard-response","386","251839","0.0-6.0-0.190","RHGA","4","f","rechts","19","","fixation","","","",""
"629","img/L60_180.png","74","image-keyboard-response","387","252468","0.0-6.0-1.190","RHGA","4","f","rechts","19","","","object","j","60","true"
"null","<div style=""font-size:60px;"">+</div>","null","html-keyboard-response","388","252920","0.0-6.0-0.191","RHGA","4","f","rechts","19","","fixation","","","",""
"647","img/0_210.png","70","image-keyboard-response","389","253567","0.0-6.0-1.191","RHGA","4","f","rechts","19","","","object","f","0","true"
"null","<div style=""font-size:60px;"">+</div>","null","html-keyboard-response","390","253919","0.0-6.0-0.192","RHGA","4","f","rechts","19","","fixation","","","",""
"824","img/90_330.png","74","image-keyboard-response","391","254744","0.0-6.0-1.192","RHGA","4","f","rechts","19","","","object","j","90","true"
"null","<div style=""font-size:60px;"">+</div>","null","html-keyboard-response","392","255095","0.0-6.0-0.193","RHGA","4","f","rechts","19","","fixation","","","",""
"896","img/60_150.png","74","image-keyboard-response","393","255991","0.0-6.0-1.193","RHGA","4","f","rechts","19","","","object","j","60","true"
"null","<div style=""font-size:60px;"">+</div>","null","html-keyboard-response","394","256342","0.0-6.0-0.194","RHGA","4","f","rechts","19","","fixation","","","",""
"714","img/30_120.png","74","image-keyboard-response","395","257056","0.0-6.0-1.194","RHGA","4","f","rechts","19","","","object","j","30","true"
"null","<div style=""font-size:60px;"">+</div>","null","html-keyboard-response","396","257507","0.0-6.0-0.195","RHGA","4","f","rechts","19","","fixation","","","",""
"723","img/60_330.png","74","image-keyboard-response","397","258230","0.0-6.0-1.195","RHGA","4","f","rechts","19","","","object","j","60","true"
"null","<div style=""font-size:60px;"">+</div>","null","html-keyboard-response","398","258680","0.0-6.0-0.196","RHGA","4","f","rechts","19","","fixation","","","",""
"729","img/150_60.png","70","image-keyboard-response","399","259410","0.0-6.0-1.196","RHGA","4","f","rechts","19","","","object","f","150","true"
"null","<div style=""font-size:60px;"">+</div>","null","html-keyboard-response","400","259711","0.0-6.0-0.197","RHGA","4","f","rechts","19","","fixation","","","",""
"611","img/0_90.png","74","image-keyboard-response","401","260322","0.0-6.0-1.197","RHGA","4","f","rechts","19","","","object","j","0","true"
"null","<div style=""font-size:60px;"">+</div>","null","html-keyboard-response","402","260823","0.0-6.0-0.198","RHGA","4","f","rechts","19","","fixation","","","",""
"636","img/120_30.png","70","image-keyboard-response","403","261460","0.0-6.0-1.198","RHGA","4","f","rechts","19","","","object","f","120","true"
"null","<div style=""font-size:60px;"">+</div>","null","html-keyboard-response","404","261861","0.0-6.0-0.199","RHGA","4","f","rechts","19","","fixation","","","",""
"557","img/120_210.png","74","image-keyboard-response","405","262419","0.0-6.0-1.199","RHGA","4","f","rechts","19","","","object","f","120","false"
"null","<div style=""font-size:60px;"">+</div>","null","html-keyboard-response","406","262920","0.0-6.0-0.200","RHGA","4","f","rechts","19","","fixation","","","",""
"496","img/90_240.png","74","image-keyboard-response","407","263417","0.0-6.0-1.200","RHGA","4","f","rechts","19","","","object","f","90","false"
"null","<div style=""font-size:60px;"">+</div>","null","html-keyboard-response","408","263918","0.0-6.0-0.201","RHGA","4","f","rechts","19","","fixation","","","",""
"521","img/0_60.png","74","image-keyboard-response","409","264441","0.0-6.0-1.201","RHGA","4","f","rechts","19","","","object","j","0","true"
"null","<div style=""font-size:60px;"">+</div>","null","html-keyboard-response","410","264942","0.0-6.0-0.202","RHGA","4","f","rechts","19","","fixation","","","",""
"534","img/0_300.png","70","image-keyboard-response","411","265477","0.0-6.0-1.202","RHGA","4","f","rechts","19","","","object","f","0","true"
"null","<div style=""font-size:60px;"">+</div>","null","html-keyboard-response","412","265978","0.0-6.0-0.203","RHGA","4","f","rechts","19","","fixation","","","",""
"567","img/90_60.png","74","image-keyboard-response","413","266545","0.0-6.0-1.203","RHGA","4","f","rechts","19","","","object","f","90","false"
"null","<div style=""font-size:60px;"">+</div>","null","html-keyboard-response","414","266846","0.0-6.0-0.204","RHGA","4","f","rechts","19","","fixation","","","",""
"724","img/60_90.png","74","image-keyboard-response","415","267570","0.0-6.0-1.204","RHGA","4","f","rechts","19","","","object","j","60","true"
"null","<div style=""font-size:60px;"">+</div>","null","html-keyboard-response","416","268021","0.0-6.0-0.205","RHGA","4","f","rechts","19","","fixation","","","",""
"601","img/150_180.png","74","image-keyboard-response","417","268622","0.0-6.0-1.205","RHGA","4","f","rechts","19","","","object","f","150","false"
"null","<div style=""font-size:60px;"">+</div>","null","html-keyboard-response","418","269023","0.0-6.0-0.206","RHGA","4","f","rechts","19","","fixation","","","",""
"572","img/L120_180.png","70","image-keyboard-response","419","269597","0.0-6.0-1.206","RHGA","4","f","rechts","19","","","object","j","120","false"
"null","<div style=""font-size:60px;"">+</div>","null","html-keyboard-response","420","269997","0.0-6.0-0.207","RHGA","4","f","rechts","19","","fixation","","","",""
"601","img/90_210.png","74","image-keyboard-response","421","270599","0.0-6.0-1.207","RHGA","4","f","rechts","19","","","object","f","90","false"
"8435","<p>Du hast in 69% der Versuche korrekt entschieden.</p><p>Deine durchschnittliche Reaktionszeit war  658ms.</p><p>Dr&uuml;cke eine beliebige Taste, um die Session zu beenden. Vielen Dank!</p>","71","html-keyboard-response","422","279035","0.0-7.0","RHGA","4","f","rechts","19","","","","","",""
