"rt","stimulus","key_press","trial_type","trial_index","time_elapsed","internal_node_id","subject","session","sex","handedness","age","responses","test_part","condition","correct_response","angle","correct"
"2148","<p>Mental Rotation Experiment.</p> <p>Dr&uuml;cke eine beliebige Taste, um anzufangen.</p>","71","html-keyboard-response","0","2149","0.0-0.0","RHGA","4","f","rechts","19","","","","","",""
"5304","","","survey-text","1","7453","0.0-1.0","RHGA","4","f","rechts","19","{""Q0"":""RHGA""}","","","","",""
"11237","","","survey-text","2","18691","0.0-2.0","RHGA","4","f","rechts","19","{""Q0"":""4""}","","","","",""
"16253","","","survey-multi-choice","3","34946","0.0-3.0","RHGA","4","f","rechts","19","{""Q0"":""f"",""Q1"":""rechts""}","","","","",""
"4380","","","survey-text","4","39327","0.0-4.0","RHGA","4","f","rechts","19","{""Q0"":""19""}","","","","",""
"141707","<p> Stell dir vor, dass du vor einem runden Tisch stehst, auf dem sich ein blauer Ball am Tischrand befindet. Entlang des Tischrands ist jeweils ein verschieden langer Pfeil. Nun bewegst du dich entlang dieses Pfeils bis an seine Spitze. Wenn du am Ende des Pfeils angekommen bist, schau zur Tischmitte. </p> <img src='img/90_180.png'></img> <br> <p>Entscheide dann, ob der Ball von deiner neuen (vorgestellten) Position links oder rechts von dir liegt.</p> <p>Dr&uuml;cke die <strong>'f'</strong>-Taste f&uuml;r links, die <strong>'j'</strong>-Taste f&uuml;r rechts.</p> <br><p> Das Bild wird jeweils 1 Sekunde lang pr&auml;sentiert. Du hast 3 Sekunden Zeit eine Entscheidung zu treffen.</p>","74","html-keyboard-response","5","181035","0.0-5.0","RHGA","4","f","rechts","19","","","","","",""
"null","<div style=""font-size:60px;"">+</div>","null","html-keyboard-response","6","182387","0.0-6.0-0.0","RHGA","4","f","rechts","19","","fixation","","","",""
"895","img/90_60.png","74","image-keyboard-response","7","183283","0.0-6.0-1.0","RHGA","4","f","rechts","19","","","self","j","90","true"
"null","<div style=""font-size:60px;"">+</div>","null","html-keyboard-response","8","183784","0.0-6.0-0.1","RHGA","4","f","rechts","19","","fixation","","","",""
"690","img/90_120.png","70","image-keyboard-response","9","184474","0.0-6.0-1.1","RHGA","4","f","rechts","19","","","self","f","90","true"
"null","<div style=""font-size:60px;"">+</div>","null","html-keyboard-response","10","184825","0.0-6.0-0.2","RHGA","4","f","rechts","19","","fixation","","","",""
"588","img/0_150.png","74","image-keyboard-response","11","185414","0.0-6.0-1.2","RHGA","4","f","rechts","19","","","self","j","0","true"
"null","<div style=""font-size:60px;"">+</div>","null","html-keyboard-response","12","185865","0.0-6.0-0.3","RHGA","4","f","rechts","19","","fixation","","","",""
"782","img/30_120.png","70","image-keyboard-response","13","186648","0.0-6.0-1.3","RHGA","4","f","rechts","19","","","self","j","30","false"
"null","<div style=""font-size:60px;"">+</div>","null","html-keyboard-response","14","186949","0.0-6.0-0.4","RHGA","4","f","rechts","19","","fixation","","","",""
"632","img/L30_180.png","70","image-keyboard-response","15","187583","0.0-6.0-1.4","RHGA","4","f","rechts","19","","","self","f","30","true"
"null","<div style=""font-size:60px;"">+</div>","null","html-keyboard-response","16","187883","0.0-6.0-0.5","RHGA","4","f","rechts","19","","fixation","","","",""
"766","img/30_60.png","74","image-keyboard-response","17","188650","0.0-6.0-1.5","RHGA","4","f","rechts","19","","","self","j","30","true"
"null","<div style=""font-size:60px;"">+</div>","null","html-keyboard-response","18","189052","0.0-6.0-0.6","RHGA","4","f","rechts","19","","fixation","","","",""
"618","img/0_60.png","74","image-keyboard-response","19","189671","0.0-6.0-1.6","RHGA","4","f","rechts","19","","","self","j","0","true"
"null","<div style=""font-size:60px;"">+</div>","null","html-keyboard-response","20","190022","0.0-6.0-0.7","RHGA","4","f","rechts","19","","fixation","","","",""
"668","img/60_90.png","74","image-keyboard-response","21","190691","0.0-6.0-1.7","RHGA","4","f","rechts","19","","","self","j","60","true"
"null","<div style=""font-size:60px;"">+</div>","null","html-keyboard-response","22","191043","0.0-6.0-0.8","RHGA","4","f","rechts","19","","fixation","","","",""
"582","img/0_300.png","70","image-keyboard-response","23","191626","0.0-6.0-1.8","RHGA","4","f","rechts","19","","","self","f","0","true"
"null","<div style=""font-size:60px;"">+</div>","null","html-keyboard-response","24","192127","0.0-6.0-0.9","RHGA","4","f","rechts","19","","fixation","","","",""
"557","img/0_90.png","74","image-keyboard-response","25","192686","0.0-6.0-1.9","RHGA","4","f","rechts","19","","","self","j","0","true"
"null","<div style=""font-size:60px;"">+</div>","null","html-keyboard-response","26","192986","0.0-6.0-0.10","RHGA","4","f","rechts","19","","fixation","","","",""
"745","img/30_240.png","70","image-keyboard-response","27","193732","0.0-6.0-1.10","RHGA","4","f","rechts","19","","","self","f","30","true"
"null","<div style=""font-size:60px;"">+</div>","null","html-keyboard-response","28","194234","0.0-6.0-0.11","RHGA","4","f","rechts","19","","fixation","","","",""
"667","img/150_240.png","74","image-keyboard-response","29","194902","0.0-6.0-1.11","RHGA","4","f","rechts","19","","","self","j","150","true"
"null","<div style=""font-size:60px;"">+</div>","null","html-keyboard-response","30","195304","0.0-6.0-0.12","RHGA","4","f","rechts","19","","fixation","","","",""
"600","img/L60_180.png","70","image-keyboard-response","31","195904","0.0-6.0-1.12","RHGA","4","f","rechts","19","","","self","f","60","true"
"null","<div style=""font-size:60px;"">+</div>","null","html-keyboard-response","32","196355","0.0-6.0-0.13","RHGA","4","f","rechts","19","","fixation","","","",""
"670","img/120_90.png","70","image-keyboard-response","33","197026","0.0-6.0-1.13","RHGA","4","f","rechts","19","","","self","f","120","true"
"null","<div style=""font-size:60px;"">+</div>","null","html-keyboard-response","34","197376","0.0-6.0-0.14","RHGA","4","f","rechts","19","","fixation","","","",""
"609","img/0_120.png","74","image-keyboard-response","35","197987","0.0-6.0-1.14","RHGA","4","f","rechts","19","","","self","j","0","true"
"null","<div style=""font-size:60px;"">+</div>","null","html-keyboard-response","36","198488","0.0-6.0-0.15","RHGA","4","f","rechts","19","","fixation","","","",""
"745","img/150_300.png","74","image-keyboard-response","37","199235","0.0-6.0-1.15","RHGA","4","f","rechts","19","","","self","j","150","true"
"null","<div style=""font-size:60px;"">+</div>","null","html-keyboard-response","38","199535","0.0-6.0-0.16","RHGA","4","f","rechts","19","","fixation","","","",""
"680","img/60_150.png","70","image-keyboard-response","39","200216","0.0-6.0-1.16","RHGA","4","f","rechts","19","","","self","f","60","true"
"null","<div style=""font-size:60px;"">+</div>","null","html-keyboard-response","40","200616","0.0-6.0-0.17","RHGA","4","f","rechts","19","","fixation","","","",""
"829","img/30_300.png","70","image-keyboard-response","41","201446","0.0-6.0-1.17","RHGA","4","f","rechts","19","","","self","f","30","true"
"null","<div style=""font-size:60px;"">+</div>","null","html-keyboard-response","42","201897","0.0-6.0-0.18","RHGA","4","f","rechts","19","","fixation","","","",""
"662","img/90_150.png","70","image-keyboard-response","43","202561","0.0-6.0-1.18","RHGA","4","f","rechts","19","","","self","f","90","true"
"null","<div style=""font-size:60px;"">+</div>","null","html-keyboard-response","44","203011","0.0-6.0-0.19","RHGA","4","f","rechts","19","","fixation","","","",""
"1007","img/120_330.png","74","image-keyboard-response","45","204019","0.0-6.0-1.19","RHGA","4","f","rechts","19","","","self","f","120","false"
"null","<div style=""font-size:60px;"">+</div>","null","html-keyboard-response","46","204520","0.0-6.0-0.20","RHGA","4","f","rechts","19","","fixation","","","",""
"816","img/120_210.png","74","image-keyboard-response","47","205337","0.0-6.0-1.20","RHGA","4","f","rechts","19","","","self","j","120","true"
"null","<div style=""font-size:60px;"">+</div>","null","html-keyboard-response","48","205638","0.0-6.0-0.21","RHGA","4","f","rechts","19","","fixation","","","",""
"787","img/60_270.png","70","image-keyboard-response","49","206427","0.0-6.0-1.21","RHGA","4","f","rechts","19","","","self","f","60","true"
"null","<div style=""font-size:60px;"">+</div>","null","html-keyboard-response","50","206827","0.0-6.0-0.22","RHGA","4","f","rechts","19","","fixation","","","",""
"665","img/0_240.png","70","image-keyboard-response","51","207494","0.0-6.0-1.22","RHGA","4","f","rechts","19","","","self","f","0","true"
"null","<div style=""font-size:60px;"">+</div>","null","html-keyboard-response","52","207844","0.0-6.0-0.23","RHGA","4","f","rechts","19","","fixation","","","",""
"821","img/30_90.png","74","image-keyboard-response","53","208667","0.0-6.0-1.23","RHGA","4","f","rechts","19","","","self","j","30","true"
"null","<div style=""font-size:60px;"">+</div>","null","html-keyboard-response","54","208967","0.0-6.0-0.24","RHGA","4","f","rechts","19","","fixation","","","",""
"808","img/90_240.png","74","image-keyboard-response","55","209776","0.0-6.0-1.24","RHGA","4","f","rechts","19","","","self","j","90","true"
"null","<div style=""font-size:60px;"">+</div>","null","html-keyboard-response","56","210227","0.0-6.0-0.25","RHGA","4","f","rechts","19","","fixation","","","",""
"994","img/90_300.png","74","image-keyboard-response","57","211222","0.0-6.0-1.25","RHGA","4","f","rechts","19","","","self","f","90","false"
"null","<div style=""font-size:60px;"">+</div>","null","html-keyboard-response","58","211723","0.0-6.0-0.26","RHGA","4","f","rechts","19","","fixation","","","",""
"699","img/60_330.png","70","image-keyboard-response","59","212424","0.0-6.0-1.26","RHGA","4","f","rechts","19","","","self","f","60","true"
"null","<div style=""font-size:60px;"">+</div>","null","html-keyboard-response","60","212924","0.0-6.0-0.27","RHGA","4","f","rechts","19","","fixation","","","",""
"550","img/90_180.png","74","image-keyboard-response","61","213475","0.0-6.0-1.27","RHGA","4","f","rechts","19","","","self","j","90","true"
"null","<div style=""font-size:60px;"">+</div>","null","html-keyboard-response","62","213976","0.0-6.0-0.28","RHGA","4","f","rechts","19","","fixation","","","",""
"1014","img/150_60.png","70","image-keyboard-response","63","214991","0.0-6.0-1.28","RHGA","4","f","rechts","19","","","self","f","150","true"
"null","<div style=""font-size:60px;"">+</div>","null","html-keyboard-response","64","215392","0.0-6.0-0.29","RHGA","4","f","rechts","19","","fixation","","","",""
"653","img/30_270.png","70","image-keyboard-response","65","216046","0.0-6.0-1.29","RHGA","4","f","rechts","19","","","self","f","30","true"
"null","<div style=""font-size:60px;"">+</div>","null","html-keyboard-response","66","216347","0.0-6.0-0.30","RHGA","4","f","rechts","19","","fixation","","","",""
"691","img/150_270.png","74","image-keyboard-response","67","217039","0.0-6.0-1.30","RHGA","4","f","rechts","19","","","self","j","150","true"
"null","<div style=""font-size:60px;"">+</div>","null","html-keyboard-response","68","217341","0.0-6.0-0.31","RHGA","4","f","rechts","19","","fixation","","","",""
"748","img/150_90.png","70","image-keyboard-response","69","218090","0.0-6.0-1.31","RHGA","4","f","rechts","19","","","self","f","150","true"
"null","<div style=""font-size:60px;"">+</div>","null","html-keyboard-response","70","218391","0.0-6.0-0.32","RHGA","4","f","rechts","19","","fixation","","","",""
"736","img/120_180.png","74","image-keyboard-response","71","219128","0.0-6.0-1.32","RHGA","4","f","rechts","19","","","self","j","120","true"
"null","<div style=""font-size:60px;"">+</div>","null","html-keyboard-response","72","219580","0.0-6.0-0.33","RHGA","4","f","rechts","19","","fixation","","","",""
"653","img/0_210.png","70","image-keyboard-response","73","220234","0.0-6.0-1.33","RHGA","4","f","rechts","19","","","self","f","0","true"
"null","<div style=""font-size:60px;"">+</div>","null","html-keyboard-response","74","220635","0.0-6.0-0.34","RHGA","4","f","rechts","19","","fixation","","","",""
"820","img/60_180.png","74","image-keyboard-response","75","221457","0.0-6.0-1.34","RHGA","4","f","rechts","19","","","self","j","60","true"
"null","<div style=""font-size:60px;"">+</div>","null","html-keyboard-response","76","221757","0.0-6.0-0.35","RHGA","4","f","rechts","19","","fixation","","","",""
"678","img/150_120.png","70","image-keyboard-response","77","222436","0.0-6.0-1.35","RHGA","4","f","rechts","19","","","self","f","150","true"
"null","<div style=""font-size:60px;"">+</div>","null","html-keyboard-response","78","222838","0.0-6.0-0.36","RHGA","4","f","rechts","19","","fixation","","","",""
"597","img/0_30.png","74","image-keyboard-response","79","223435","0.0-6.0-1.36","RHGA","4","f","rechts","19","","","self","j","0","true"
"null","<div style=""font-size:60px;"">+</div>","null","html-keyboard-response","80","223936","0.0-6.0-0.37","RHGA","4","f","rechts","19","","fixation","","","",""
"1079","img/90_30.png","74","image-keyboard-response","81","225016","0.0-6.0-1.37","RHGA","4","f","rechts","19","","","self","j","90","true"
"null","<div style=""font-size:60px;"">+</div>","null","html-keyboard-response","82","225367","0.0-6.0-0.38","RHGA","4","f","rechts","19","","fixation","","","",""
"726","img/120_150.png","70","image-keyboard-response","83","226094","0.0-6.0-1.38","RHGA","4","f","rechts","19","","","self","f","120","true"
"null","<div style=""font-size:60px;"">+</div>","null","html-keyboard-response","84","226544","0.0-6.0-0.39","RHGA","4","f","rechts","19","","fixation","","","",""
"703","img/90_210.png","74","image-keyboard-response","85","227248","0.0-6.0-1.39","RHGA","4","f","rechts","19","","","self","j","90","true"
"null","<div style=""font-size:60px;"">+</div>","null","html-keyboard-response","86","227650","0.0-6.0-0.40","RHGA","4","f","rechts","19","","fixation","","","",""
"694","img/60_210.png","74","image-keyboard-response","87","228345","0.0-6.0-1.40","RHGA","4","f","rechts","19","","","self","j","60","true"
"null","<div style=""font-size:60px;"">+</div>","null","html-keyboard-response","88","228796","0.0-6.0-0.41","RHGA","4","f","rechts","19","","fixation","","","",""
"627","img/0_330.png","70","image-keyboard-response","89","229423","0.0-6.0-1.41","RHGA","4","f","rechts","19","","","self","f","0","true"
"null","<div style=""font-size:60px;"">+</div>","null","html-keyboard-response","90","229723","0.0-6.0-0.42","RHGA","4","f","rechts","19","","fixation","","","",""
"724","img/30_180.png","74","image-keyboard-response","91","230449","0.0-6.0-1.42","RHGA","4","f","rechts","19","","","self","j","30","true"
"null","<div style=""font-size:60px;"">+</div>","null","html-keyboard-response","92","230950","0.0-6.0-0.43","RHGA","4","f","rechts","19","","fixation","","","",""
"938","img/60_30.png","74","image-keyboard-response","93","231890","0.0-6.0-1.43","RHGA","4","f","rechts","19","","","self","j","60","true"
"null","<div style=""font-size:60px;"">+</div>","null","html-keyboard-response","94","232390","0.0-6.0-0.44","RHGA","4","f","rechts","19","","fixation","","","",""
"624","img/L150_180.png","70","image-keyboard-response","95","233015","0.0-6.0-1.44","RHGA","4","f","rechts","19","","","self","f","150","true"
"null","<div style=""font-size:60px;"">+</div>","null","html-keyboard-response","96","233416","0.0-6.0-0.45","RHGA","4","f","rechts","19","","fixation","","","",""
"599","img/L120_180.png","70","image-keyboard-response","97","234016","0.0-6.0-1.45","RHGA","4","f","rechts","19","","","self","f","120","true"
"null","<div style=""font-size:60px;"">+</div>","null","html-keyboard-response","98","234517","0.0-6.0-0.46","RHGA","4","f","rechts","19","","fixation","","","",""
"591","img/0_270.png","70","image-keyboard-response","99","235108","0.0-6.0-1.46","RHGA","4","f","rechts","19","","","self","f","0","true"
"null","<div style=""font-size:60px;"">+</div>","null","html-keyboard-response","100","235459","0.0-6.0-0.47","RHGA","4","f","rechts","19","","fixation","","","",""
"1085","img/90_330.png","70","image-keyboard-response","101","236546","0.0-6.0-1.47","RHGA","4","f","rechts","19","","","self","f","90","true"
"null","<div style=""font-size:60px;"">+</div>","null","html-keyboard-response","102","236846","0.0-6.0-0.48","RHGA","4","f","rechts","19","","fixation","","","",""
"742","img/120_270.png","74","image-keyboard-response","103","237590","0.0-6.0-1.48","RHGA","4","f","rechts","19","","","self","j","120","true"
"null","<div style=""font-size:60px;"">+</div>","null","html-keyboard-response","104","237941","0.0-6.0-0.49","RHGA","4","f","rechts","19","","fixation","","","",""
"1310","img/120_30.png","74","image-keyboard-response","105","239251","0.0-6.0-1.49","RHGA","4","f","rechts","19","","","self","j","120","true"
"null","<div style=""font-size:60px;"">+</div>","null","html-keyboard-response","106","239553","0.0-6.0-0.50","RHGA","4","f","rechts","19","","fixation","","","",""
"646","img/150_180.png","74","image-keyboard-response","107","240199","0.0-6.0-1.50","RHGA","4","f","rechts","19","","","self","j","150","true"
"null","<div style=""font-size:60px;"">+</div>","null","html-keyboard-response","108","240500","0.0-6.0-0.51","RHGA","4","f","rechts","19","","fixation","","","",""
"709","img/L90_180.png","70","image-keyboard-response","109","241210","0.0-6.0-1.51","RHGA","4","f","rechts","19","","","self","f","90","true"
"null","<div style=""font-size:60px;"">+</div>","null","html-keyboard-response","110","241661","0.0-6.0-0.52","RHGA","4","f","rechts","19","","fixation","","","",""
"913","img/90_60.png","74","image-keyboard-response","111","242576","0.0-6.0-1.52","RHGA","4","f","rechts","19","","","self","j","90","true"
"null","<div style=""font-size:60px;"">+</div>","null","html-keyboard-response","112","242976","0.0-6.0-0.53","RHGA","4","f","rechts","19","","fixation","","","",""
"569","img/0_60.png","74","image-keyboard-response","113","243546","0.0-6.0-1.53","RHGA","4","f","rechts","19","","","self","j","0","true"
"null","<div style=""font-size:60px;"">+</div>","null","html-keyboard-response","114","243997","0.0-6.0-0.54","RHGA","4","f","rechts","19","","fixation","","","",""
"726","img/90_180.png","74","image-keyboard-response","115","244725","0.0-6.0-1.54","RHGA","4","f","rechts","19","","","self","j","90","true"
"null","<div style=""font-size:60px;"">+</div>","null","html-keyboard-response","116","245226","0.0-6.0-0.55","RHGA","4","f","rechts","19","","fixation","","","",""
"650","img/0_150.png","74","image-keyboard-response","117","245876","0.0-6.0-1.55","RHGA","4","f","rechts","19","","","self","j","0","true"
"null","<div style=""font-size:60px;"">+</div>","null","html-keyboard-response","118","246327","0.0-6.0-0.56","RHGA","4","f","rechts","19","","fixation","","","",""
"782","img/60_210.png","74","image-keyboard-response","119","247110","0.0-6.0-1.56","RHGA","4","f","rechts","19","","","self","j","60","true"
"null","<div style=""font-size:60px;"">+</div>","null","html-keyboard-response","120","247560","0.0-6.0-0.57","RHGA","4","f","rechts","19","","fixation","","","",""
"800","img/60_270.png","70","image-keyboard-response","121","248362","0.0-6.0-1.57","RHGA","4","f","rechts","19","","","self","f","60","true"
"null","<div style=""font-size:60px;"">+</div>","null","html-keyboard-response","122","248812","0.0-6.0-0.58","RHGA","4","f","rechts","19","","fixation","","","",""
"604","img/90_210.png","74","image-keyboard-response","123","249418","0.0-6.0-1.58","RHGA","4","f","rechts","19","","","self","j","90","true"
"null","<div style=""font-size:60px;"">+</div>","null","html-keyboard-response","124","249869","0.0-6.0-0.59","RHGA","4","f","rechts","19","","fixation","","","",""
"614","img/150_180.png","74","image-keyboard-response","125","250485","0.0-6.0-1.59","RHGA","4","f","rechts","19","","","self","j","150","true"
"null","<div style=""font-size:60px;"">+</div>","null","html-keyboard-response","126","250885","0.0-6.0-0.60","RHGA","4","f","rechts","19","","fixation","","","",""
"701","img/L30_180.png","70","image-keyboard-response","127","251586","0.0-6.0-1.60","RHGA","4","f","rechts","19","","","self","f","30","true"
"null","<div style=""font-size:60px;"">+</div>","null","html-keyboard-response","128","251887","0.0-6.0-0.61","RHGA","4","f","rechts","19","","fixation","","","",""
"651","img/L60_180.png","70","image-keyboard-response","129","252538","0.0-6.0-1.61","RHGA","4","f","rechts","19","","","self","f","60","true"
"null","<div style=""font-size:60px;"">+</div>","null","html-keyboard-response","130","252940","0.0-6.0-0.62","RHGA","4","f","rechts","19","","fixation","","","",""
"540","img/0_120.png","74","image-keyboard-response","131","253480","0.0-6.0-1.62","RHGA","4","f","rechts","19","","","self","j","0","true"
"null","<div style=""font-size:60px;"">+</div>","null","html-keyboard-response","132","253932","0.0-6.0-0.63","RHGA","4","f","rechts","19","","fixation","","","",""
"541","img/0_210.png","70","image-keyboard-response","133","254473","0.0-6.0-1.63","RHGA","4","f","rechts","19","","","self","f","0","true"
"null","<div style=""font-size:60px;"">+</div>","null","html-keyboard-response","134","254974","0.0-6.0-0.64","RHGA","4","f","rechts","19","","fixation","","","",""
"559","img/0_300.png","70","image-keyboard-response","135","255534","0.0-6.0-1.64","RHGA","4","f","rechts","19","","","self","f","0","true"
"null","<div style=""font-size:60px;"">+</div>","null","html-keyboard-response","136","255884","0.0-6.0-0.65","RHGA","4","f","rechts","19","","fixation","","","",""
"741","img/90_330.png","70","image-keyboard-response","137","256626","0.0-6.0-1.65","RHGA","4","f","rechts","19","","","self","f","90","true"
"null","<div style=""font-size:60px;"">+</div>","null","html-keyboard-response","138","256978","0.0-6.0-0.66","RHGA","4","f","rechts","19","","fixation","","","",""
"691","img/120_90.png","70","image-keyboard-response","139","257669","0.0-6.0-1.66","RHGA","4","f","rechts","19","","","self","f","120","true"
"null","<div style=""font-size:60px;"">+</div>","null","html-keyboard-response","140","258020","0.0-6.0-0.67","RHGA","4","f","rechts","19","","fixation","","","",""
"648","img/0_240.png","70","image-keyboard-response","141","258668","0.0-6.0-1.67","RHGA","4","f","rechts","19","","","self","f","0","true"
"null","<div style=""font-size:60px;"">+</div>","null","html-keyboard-response","142","258969","0.0-6.0-0.68","RHGA","4","f","rechts","19","","fixation","","","",""
"845","img/150_60.png","74","image-keyboard-response","143","259814","0.0-6.0-1.68","RHGA","4","f","rechts","19","","","self","f","150","false"
"null","<div style=""font-size:60px;"">+</div>","null","html-keyboard-response","144","260265","0.0-6.0-0.69","RHGA","4","f","rechts","19","","fixation","","","",""
"757","img/90_150.png","70","image-keyboard-response","145","261023","0.0-6.0-1.69","RHGA","4","f","rechts","19","","","self","f","90","true"
"null","<div style=""font-size:60px;"">+</div>","null","html-keyboard-response","146","261374","0.0-6.0-0.70","RHGA","4","f","rechts","19","","fixation","","","",""
"666","img/150_240.png","74","image-keyboard-response","147","262040","0.0-6.0-1.70","RHGA","4","f","rechts","19","","","self","j","150","true"
"null","<div style=""font-size:60px;"">+</div>","null","html-keyboard-response","148","262391","0.0-6.0-0.71","RHGA","4","f","rechts","19","","fixation","","","",""
"662","img/60_150.png","70","image-keyboard-response","149","263053","0.0-6.0-1.71","RHGA","4","f","rechts","19","","","self","f","60","true"
"null","<div style=""font-size:60px;"">+</div>","null","html-keyboard-response","150","263354","0.0-6.0-0.72","RHGA","4","f","rechts","19","","fixation","","","",""
"1168","img/30_240.png","74","image-keyboard-response","151","264522","0.0-6.0-1.72","RHGA","4","f","rechts","19","","","self","f","30","false"
"null","<div style=""font-size:60px;"">+</div>","null","html-keyboard-response","152","265023","0.0-6.0-0.73","RHGA","4","f","rechts","19","","fixation","","","",""
"978","img/60_90.png","74","image-keyboard-response","153","266002","0.0-6.0-1.73","RHGA","4","f","rechts","19","","","self","j","60","true"
"null","<div style=""font-size:60px;"">+</div>","null","html-keyboard-response","154","266353","0.0-6.0-0.74","RHGA","4","f","rechts","19","","fixation","","","",""
"616","img/L120_180.png","70","image-keyboard-response","155","266969","0.0-6.0-1.74","RHGA","4","f","rechts","19","","","self","f","120","true"
"null","<div style=""font-size:60px;"">+</div>","null","html-keyboard-response","156","267270","0.0-6.0-0.75","RHGA","4","f","rechts","19","","fixation","","","",""
"564","img/120_150.png","70","image-keyboard-response","157","267834","0.0-6.0-1.75","RHGA","4","f","rechts","19","","","self","f","120","true"
"null","<div style=""font-size:60px;"">+</div>","null","html-keyboard-response","158","268234","0.0-6.0-0.76","RHGA","4","f","rechts","19","","fixation","","","",""
"600","img/60_180.png","74","image-keyboard-response","159","268835","0.0-6.0-1.76","RHGA","4","f","rechts","19","","","self","j","60","true"
"null","<div style=""font-size:60px;"">+</div>","null","html-keyboard-response","160","269236","0.0-6.0-0.77","RHGA","4","f","rechts","19","","fixation","","","",""
"639","img/150_120.png","70","image-keyboard-response","161","269875","0.0-6.0-1.77","RHGA","4","f","rechts","19","","","self","f","150","true"
"null","<div style=""font-size:60px;"">+</div>","null","html-keyboard-response","162","270226","0.0-6.0-0.78","RHGA","4","f","rechts","19","","fixation","","","",""
"717","img/30_60.png","74","image-keyboard-response","163","270944","0.0-6.0-1.78","RHGA","4","f","rechts","19","","","self","j","30","true"
"null","<div style=""font-size:60px;"">+</div>","null","html-keyboard-response","164","271346","0.0-6.0-0.79","RHGA","4","f","rechts","19","","fixation","","","",""
"1130","img/90_300.png","74","image-keyboard-response","165","272476","0.0-6.0-1.79","RHGA","4","f","rechts","19","","","self","f","90","false"
"null","<div style=""font-size:60px;"">+</div>","null","html-keyboard-response","166","272777","0.0-6.0-0.80","RHGA","4","f","rechts","19","","fixation","","","",""
"600","img/0_330.png","70","image-keyboard-response","167","273378","0.0-6.0-1.80","RHGA","4","f","rechts","19","","","self","f","0","true"
"null","<div style=""font-size:60px;"">+</div>","null","html-keyboard-response","168","273679","0.0-6.0-0.81","RHGA","4","f","rechts","19","","fixation","","","",""
"594","img/L150_180.png","70","image-keyboard-response","169","274273","0.0-6.0-1.81","RHGA","4","f","rechts","19","","","self","f","150","true"
"null","<div style=""font-size:60px;"">+</div>","null","html-keyboard-response","170","274624","0.0-6.0-0.82","RHGA","4","f","rechts","19","","fixation","","","",""
"555","img/120_180.png","74","image-keyboard-response","171","275180","0.0-6.0-1.82","RHGA","4","f","rechts","19","","","self","j","120","true"
"null","<div style=""font-size:60px;"">+</div>","null","html-keyboard-response","172","275532","0.0-6.0-0.83","RHGA","4","f","rechts","19","","fixation","","","",""
"665","img/60_330.png","70","image-keyboard-response","173","276197","0.0-6.0-1.83","RHGA","4","f","rechts","19","","","self","f","60","true"
"null","<div style=""font-size:60px;"">+</div>","null","html-keyboard-response","174","276648","0.0-6.0-0.84","RHGA","4","f","rechts","19","","fixation","","","",""
"603","img/0_30.png","74","image-keyboard-response","175","277252","0.0-6.0-1.84","RHGA","4","f","rechts","19","","","self","j","0","true"
"null","<div style=""font-size:60px;"">+</div>","null","html-keyboard-response","176","277652","0.0-6.0-0.85","RHGA","4","f","rechts","19","","fixation","","","",""
"743","img/150_300.png","74","image-keyboard-response","177","278397","0.0-6.0-1.85","RHGA","4","f","rechts","19","","","self","j","150","true"
"null","<div style=""font-size:60px;"">+</div>","null","html-keyboard-response","178","278747","0.0-6.0-0.86","RHGA","4","f","rechts","19","","fixation","","","",""
"727","img/150_90.png","70","image-keyboard-response","179","279476","0.0-6.0-1.86","RHGA","4","f","rechts","19","","","self","f","150","true"
"null","<div style=""font-size:60px;"">+</div>","null","html-keyboard-response","180","279826","0.0-6.0-0.87","RHGA","4","f","rechts","19","","fixation","","","",""
"695","img/30_90.png","74","image-keyboard-response","181","280522","0.0-6.0-1.87","RHGA","4","f","rechts","19","","","self","j","30","true"
"null","<div style=""font-size:60px;"">+</div>","null","html-keyboard-response","182","280823","0.0-6.0-0.88","RHGA","4","f","rechts","19","","fixation","","","",""
"708","img/30_180.png","74","image-keyboard-response","183","281532","0.0-6.0-1.88","RHGA","4","f","rechts","19","","","self","j","30","true"
"null","<div style=""font-size:60px;"">+</div>","null","html-keyboard-response","184","281983","0.0-6.0-0.89","RHGA","4","f","rechts","19","","fixation","","","",""
"684","img/90_240.png","74","image-keyboard-response","185","282668","0.0-6.0-1.89","RHGA","4","f","rechts","19","","","self","j","90","true"
"null","<div style=""font-size:60px;"">+</div>","null","html-keyboard-response","186","283169","0.0-6.0-0.90","RHGA","4","f","rechts","19","","fixation","","","",""
"605","img/150_270.png","74","image-keyboard-response","187","283775","0.0-6.0-1.90","RHGA","4","f","rechts","19","","","self","j","150","true"
"null","<div style=""font-size:60px;"">+</div>","null","html-keyboard-response","188","284175","0.0-6.0-0.91","RHGA","4","f","rechts","19","","fixation","","","",""
"759","img/30_270.png","70","image-keyboard-response","189","284935","0.0-6.0-1.91","RHGA","4","f","rechts","19","","","self","f","30","true"
"null","<div style=""font-size:60px;"">+</div>","null","html-keyboard-response","190","285236","0.0-6.0-0.92","RHGA","4","f","rechts","19","","fixation","","","",""
"718","img/60_30.png","74","image-keyboard-response","191","285955","0.0-6.0-1.92","RHGA","4","f","rechts","19","","","self","j","60","true"
"null","<div style=""font-size:60px;"">+</div>","null","html-keyboard-response","192","286356","0.0-6.0-0.93","RHGA","4","f","rechts","19","","fixation","","","",""
"654","img/30_300.png","70","image-keyboard-response","193","287011","0.0-6.0-1.93","RHGA","4","f","rechts","19","","","self","f","30","true"
"null","<div style=""font-size:60px;"">+</div>","null","html-keyboard-response","194","287312","0.0-6.0-0.94","RHGA","4","f","rechts","19","","fixation","","","",""
"776","img/90_120.png","70","image-keyboard-response","195","288089","0.0-6.0-1.94","RHGA","4","f","rechts","19","","","self","f","90","true"
"null","<div style=""font-size:60px;"">+</div>","null","html-keyboard-response","196","288440","0.0-6.0-0.95","RHGA","4","f","rechts","19","","fixation","","","",""
"749","img/90_30.png","74","image-keyboard-response","197","289190","0.0-6.0-1.95","RHGA","4","f","rechts","19","","","self","j","90","true"
"null","<div style=""font-size:60px;"">+</div>","null","html-keyboard-response","198","289641","0.0-6.0-0.96","RHGA","4","f","rechts","19","","fixation","","","",""
"833","img/120_330.png","74","image-keyboard-response","199","290474","0.0-6.0-1.96","RHGA","4","f","rechts","19","","","self","f","120","false"
"null","<div style=""font-size:60px;"">+</div>","null","html-keyboard-response","200","290825","0.0-6.0-0.97","RHGA","4","f","rechts","19","","fixation","","","",""
"768","img/120_270.png","74","image-keyboard-response","201","291593","0.0-6.0-1.97","RHGA","4","f","rechts","19","","","self","j","120","true"
"null","<div style=""font-size:60px;"">+</div>","null","html-keyboard-response","202","291995","0.0-6.0-0.98","RHGA","4","f","rechts","19","","fixation","","","",""
"571","img/0_270.png","70","image-keyboard-response","203","292566","0.0-6.0-1.98","RHGA","4","f","rechts","19","","","self","f","0","true"
"null","<div style=""font-size:60px;"">+</div>","null","html-keyboard-response","204","292867","0.0-6.0-0.99","RHGA","4","f","rechts","19","","fixation","","","",""
"615","img/120_210.png","74","image-keyboard-response","205","293482","0.0-6.0-1.99","RHGA","4","f","rechts","19","","","self","j","120","true"
"null","<div style=""font-size:60px;"">+</div>","null","html-keyboard-response","206","293934","0.0-6.0-0.100","RHGA","4","f","rechts","19","","fixation","","","",""
"848","img/30_120.png","70","image-keyboard-response","207","294782","0.0-6.0-1.100","RHGA","4","f","rechts","19","","","self","j","30","false"
"null","<div style=""font-size:60px;"">+</div>","null","html-keyboard-response","208","295183","0.0-6.0-0.101","RHGA","4","f","rechts","19","","fixation","","","",""
"1166","img/120_30.png","70","image-keyboard-response","209","296350","0.0-6.0-1.101","RHGA","4","f","rechts","19","","","self","j","120","false"
"null","<div style=""font-size:60px;"">+</div>","null","html-keyboard-response","210","296801","0.0-6.0-0.102","RHGA","4","f","rechts","19","","fixation","","","",""
"830","img/L90_180.png","70","image-keyboard-response","211","297632","0.0-6.0-1.102","RHGA","4","f","rechts","19","","","self","f","90","true"
"null","<div style=""font-size:60px;"">+</div>","null","html-keyboard-response","212","298034","0.0-6.0-0.103","RHGA","4","f","rechts","19","","fixation","","","",""
"566","img/0_90.png","74","image-keyboard-response","213","298600","0.0-6.0-1.103","RHGA","4","f","rechts","19","","","self","j","0","true"
"null","<div style=""font-size:60px;"">+</div>","null","html-keyboard-response","214","299001","0.0-6.0-0.104","RHGA","4","f","rechts","19","","fixation","","","",""
"756","img/30_270.png","70","image-keyboard-response","215","299757","0.0-6.0-1.104","RHGA","4","f","rechts","19","","","self","f","30","true"
"null","<div style=""font-size:60px;"">+</div>","null","html-keyboard-response","216","300157","0.0-6.0-0.105","RHGA","4","f","rechts","19","","fixation","","","",""
"668","img/90_210.png","74","image-keyboard-response","217","300826","0.0-6.0-1.105","RHGA","4","f","rechts","19","","","self","j","90","true"
"null","<div style=""font-size:60px;"">+</div>","null","html-keyboard-response","218","301227","0.0-6.0-0.106","RHGA","4","f","rechts","19","","fixation","","","",""
"614","img/120_150.png","70","image-keyboard-response","219","301841","0.0-6.0-1.106","RHGA","4","f","rechts","19","","","self","f","120","true"
"null","<div style=""font-size:60px;"">+</div>","null","html-keyboard-response","220","302142","0.0-6.0-0.107","RHGA","4","f","rechts","19","","fixation","","","",""
"636","img/0_330.png","70","image-keyboard-response","221","302778","0.0-6.0-1.107","RHGA","4","f","rechts","19","","","self","f","0","true"
"null","<div style=""font-size:60px;"">+</div>","null","html-keyboard-response","222","303279","0.0-6.0-0.108","RHGA","4","f","rechts","19","","fixation","","","",""
"783","img/60_30.png","74","image-keyboard-response","223","304062","0.0-6.0-1.108","RHGA","4","f","rechts","19","","","self","j","60","true"
"null","<div style=""font-size:60px;"">+</div>","null","html-keyboard-response","224","304413","0.0-6.0-0.109","RHGA","4","f","rechts","19","","fixation","","","",""
"702","img/90_120.png","70","image-keyboard-response","225","305116","0.0-6.0-1.109","RHGA","4","f","rechts","19","","","self","f","90","true"
"null","<div style=""font-size:60px;"">+</div>","null","html-keyboard-response","226","305467","0.0-6.0-0.110","RHGA","4","f","rechts","19","","fixation","","","",""
"733","img/60_210.png","74","image-keyboard-response","227","306202","0.0-6.0-1.110","RHGA","4","f","rechts","19","","","self","j","60","true"
"null","<div style=""font-size:60px;"">+</div>","null","html-keyboard-response","228","306652","0.0-6.0-0.111","RHGA","4","f","rechts","19","","fixation","","","",""
"583","img/0_240.png","70","image-keyboard-response","229","307236","0.0-6.0-1.111","RHGA","4","f","rechts","19","","","self","f","0","true"
"null","<div style=""font-size:60px;"">+</div>","null","html-keyboard-response","230","307687","0.0-6.0-0.112","RHGA","4","f","rechts","19","","fixation","","","",""
"481","img/0_60.png","74","image-keyboard-response","231","308168","0.0-6.0-1.112","RHGA","4","f","rechts","19","","","self","j","0","true"
"null","<div style=""font-size:60px;"">+</div>","null","html-keyboard-response","232","308568","0.0-6.0-0.113","RHGA","4","f","rechts","19","","fixation","","","",""
"597","img/0_30.png","74","image-keyboard-response","233","309166","0.0-6.0-1.113","RHGA","4","f","rechts","19","","","self","j","0","true"
"null","<div style=""font-size:60px;"">+</div>","null","html-keyboard-response","234","309516","0.0-6.0-0.114","RHGA","4","f","rechts","19","","fixation","","","",""
"720","img/150_180.png","74","image-keyboard-response","235","310238","0.0-6.0-1.114","RHGA","4","f","rechts","19","","","self","j","150","true"
"null","<div style=""font-size:60px;"">+</div>","null","html-keyboard-response","236","310589","0.0-6.0-0.115","RHGA","4","f","rechts","19","","fixation","","","",""
"601","img/0_150.png","74","image-keyboard-response","237","311190","0.0-6.0-1.115","RHGA","4","f","rechts","19","","","self","j","0","true"
"null","<div style=""font-size:60px;"">+</div>","null","html-keyboard-response","238","311591","0.0-6.0-0.116","RHGA","4","f","rechts","19","","fixation","","","",""
"561","img/30_300.png","70","image-keyboard-response","239","312154","0.0-6.0-1.116","RHGA","4","f","rechts","19","","","self","f","30","true"
"null","<div style=""font-size:60px;"">+</div>","null","html-keyboard-response","240","312454","0.0-6.0-0.117","RHGA","4","f","rechts","19","","fixation","","","",""
"810","img/L120_180.png","70","image-keyboard-response","241","313265","0.0-6.0-1.117","RHGA","4","f","rechts","19","","","self","f","120","true"
"null","<div style=""font-size:60px;"">+</div>","null","html-keyboard-response","242","313565","0.0-6.0-0.118","RHGA","4","f","rechts","19","","fixation","","","",""
"824","img/120_90.png","70","image-keyboard-response","243","314390","0.0-6.0-1.118","RHGA","4","f","rechts","19","","","self","f","120","true"
"null","<div style=""font-size:60px;"">+</div>","null","html-keyboard-response","244","314791","0.0-6.0-0.119","RHGA","4","f","rechts","19","","fixation","","","",""
"595","img/60_180.png","74","image-keyboard-response","245","315387","0.0-6.0-1.119","RHGA","4","f","rechts","19","","","self","j","60","true"
"null","<div style=""font-size:60px;"">+</div>","null","html-keyboard-response","246","315738","0.0-6.0-0.120","RHGA","4","f","rechts","19","","fixation","","","",""
"654","img/90_180.png","74","image-keyboard-response","247","316393","0.0-6.0-1.120","RHGA","4","f","rechts","19","","","self","j","90","true"
"null","<div style=""font-size:60px;"">+</div>","null","html-keyboard-response","248","316694","0.0-6.0-0.121","RHGA","4","f","rechts","19","","fixation","","","",""
"931","img/120_30.png","74","image-keyboard-response","249","317625","0.0-6.0-1.121","RHGA","4","f","rechts","19","","","self","j","120","true"
"null","<div style=""font-size:60px;"">+</div>","null","html-keyboard-response","250","318126","0.0-6.0-0.122","RHGA","4","f","rechts","19","","fixation","","","",""
"734","img/60_150.png","70","image-keyboard-response","251","318860","0.0-6.0-1.122","RHGA","4","f","rechts","19","","","self","f","60","true"
"null","<div style=""font-size:60px;"">+</div>","null","html-keyboard-response","252","319312","0.0-6.0-0.123","RHGA","4","f","rechts","19","","fixation","","","",""
"639","img/0_210.png","70","image-keyboard-response","253","319951","0.0-6.0-1.123","RHGA","4","f","rechts","19","","","self","f","0","true"
"null","<div style=""font-size:60px;"">+</div>","null","html-keyboard-response","254","320403","0.0-6.0-0.124","RHGA","4","f","rechts","19","","fixation","","","",""
"838","img/150_60.png","70","image-keyboard-response","255","321241","0.0-6.0-1.124","RHGA","4","f","rechts","19","","","self","f","150","true"
"null","<div style=""font-size:60px;"">+</div>","null","html-keyboard-response","256","321742","0.0-6.0-0.125","RHGA","4","f","rechts","19","","fixation","","","",""
"880","img/90_30.png","74","image-keyboard-response","257","322624","0.0-6.0-1.125","RHGA","4","f","rechts","19","","","self","j","90","true"
"null","<div style=""font-size:60px;"">+</div>","null","html-keyboard-response","258","322924","0.0-6.0-0.126","RHGA","4","f","rechts","19","","fixation","","","",""
"652","img/0_300.png","70","image-keyboard-response","259","323577","0.0-6.0-1.126","RHGA","4","f","rechts","19","","","self","f","0","true"
"null","<div style=""font-size:60px;"">+</div>","null","html-keyboard-response","260","324077","0.0-6.0-0.127","RHGA","4","f","rechts","19","","fixation","","","",""
"542","img/150_300.png","74","image-keyboard-response","261","324620","0.0-6.0-1.127","RHGA","4","f","rechts","19","","","self","j","150","true"
"null","<div style=""font-size:60px;"">+</div>","null","html-keyboard-response","262","325121","0.0-6.0-0.128","RHGA","4","f","rechts","19","","fixation","","","",""
"627","img/L60_180.png","70","image-keyboard-response","263","325749","0.0-6.0-1.128","RHGA","4","f","rechts","19","","","self","f","60","true"
"null","<div style=""font-size:60px;"">+</div>","null","html-keyboard-response","264","326101","0.0-6.0-0.129","RHGA","4","f","rechts","19","","fixation","","","",""
"716","img/150_90.png","70","image-keyboard-response","265","326817","0.0-6.0-1.129","RHGA","4","f","rechts","19","","","self","f","150","true"
"null","<div style=""font-size:60px;"">+</div>","null","html-keyboard-response","266","327168","0.0-6.0-0.130","RHGA","4","f","rechts","19","","fixation","","","",""
"668","img/0_90.png","74","image-keyboard-response","267","327836","0.0-6.0-1.130","RHGA","4","f","rechts","19","","","self","j","0","true"
"null","<div style=""font-size:60px;"">+</div>","null","html-keyboard-response","268","328287","0.0-6.0-0.131","RHGA","4","f","rechts","19","","fixation","","","",""
"658","img/150_240.png","74","image-keyboard-response","269","328945","0.0-6.0-1.131","RHGA","4","f","rechts","19","","","self","j","150","true"
"null","<div style=""font-size:60px;"">+</div>","null","html-keyboard-response","270","329246","0.0-6.0-0.132","RHGA","4","f","rechts","19","","fixation","","","",""
"808","img/90_330.png","70","image-keyboard-response","271","330056","0.0-6.0-1.132","RHGA","4","f","rechts","19","","","self","f","90","true"
"null","<div style=""font-size:60px;"">+</div>","null","html-keyboard-response","272","330407","0.0-6.0-0.133","RHGA","4","f","rechts","19","","fixation","","","",""
"704","img/60_330.png","70","image-keyboard-response","273","331111","0.0-6.0-1.133","RHGA","4","f","rechts","19","","","self","f","60","true"
"null","<div style=""font-size:60px;"">+</div>","null","html-keyboard-response","274","331412","0.0-6.0-0.134","RHGA","4","f","rechts","19","","fixation","","","",""
"759","img/L30_180.png","70","image-keyboard-response","275","332171","0.0-6.0-1.134","RHGA","4","f","rechts","19","","","self","f","30","true"
"null","<div style=""font-size:60px;"">+</div>","null","html-keyboard-response","276","332522","0.0-6.0-0.135","RHGA","4","f","rechts","19","","fixation","","","",""
"756","img/150_120.png","70","image-keyboard-response","277","333278","0.0-6.0-1.135","RHGA","4","f","rechts","19","","","self","f","150","true"
"null","<div style=""font-size:60px;"">+</div>","null","html-keyboard-response","278","333629","0.0-6.0-0.136","RHGA","4","f","rechts","19","","fixation","","","",""
"610","img/120_180.png","74","image-keyboard-response","279","334239","0.0-6.0-1.136","RHGA","4","f","rechts","19","","","self","j","120","true"
"null","<div style=""font-size:60px;"">+</div>","null","html-keyboard-response","280","334640","0.0-6.0-0.137","RHGA","4","f","rechts","19","","fixation","","","",""
"759","img/120_330.png","74","image-keyboard-response","281","335399","0.0-6.0-1.137","RHGA","4","f","rechts","19","","","self","f","120","false"
"null","<div style=""font-size:60px;"">+</div>","null","html-keyboard-response","282","335700","0.0-6.0-0.138","RHGA","4","f","rechts","19","","fixation","","","",""
"664","img/60_270.png","70","image-keyboard-response","283","336364","0.0-6.0-1.138","RHGA","4","f","rechts","19","","","self","f","60","true"
"null","<div style=""font-size:60px;"">+</div>","null","html-keyboard-response","284","336764","0.0-6.0-0.139","RHGA","4","f","rechts","19","","fixation","","","",""
"818","img/30_60.png","74","image-keyboard-response","285","337583","0.0-6.0-1.139","RHGA","4","f","rechts","19","","","self","j","30","true"
"null","<div style=""font-size:60px;"">+</div>","null","html-keyboard-response","286","337885","0.0-6.0-0.140","RHGA","4","f","rechts","19","","fixation","","","",""
"727","img/90_150.png","70","image-keyboard-response","287","338612","0.0-6.0-1.140","RHGA","4","f","rechts","19","","","self","f","90","true"
"null","<div style=""font-size:60px;"">+</div>","null","html-keyboard-response","288","339013","0.0-6.0-0.141","RHGA","4","f","rechts","19","","fixation","","","",""
"589","img/L150_180.png","70","image-keyboard-response","289","339602","0.0-6.0-1.141","RHGA","4","f","rechts","19","","","self","f","150","true"
"null","<div style=""font-size:60px;"">+</div>","null","html-keyboard-response","290","340103","0.0-6.0-0.142","RHGA","4","f","rechts","19","","fixation","","","",""
"647","img/30_120.png","74","image-keyboard-response","291","340751","0.0-6.0-1.142","RHGA","4","f","rechts","19","","","self","j","30","true"
"null","<div style=""font-size:60px;"">+</div>","null","html-keyboard-response","292","341202","0.0-6.0-0.143","RHGA","4","f","rechts","19","","fixation","","","",""
"656","img/90_240.png","74","image-keyboard-response","293","341858","0.0-6.0-1.143","RHGA","4","f","rechts","19","","","self","j","90","true"
"null","<div style=""font-size:60px;"">+</div>","null","html-keyboard-response","294","342209","0.0-6.0-0.144","RHGA","4","f","rechts","19","","fixation","","","",""
"661","img/0_120.png","74","image-keyboard-response","295","342870","0.0-6.0-1.144","RHGA","4","f","rechts","19","","","self","j","0","true"
"null","<div style=""font-size:60px;"">+</div>","null","html-keyboard-response","296","343220","0.0-6.0-0.145","RHGA","4","f","rechts","19","","fixation","","","",""
"575","img/0_270.png","70","image-keyboard-response","297","343796","0.0-6.0-1.145","RHGA","4","f","rechts","19","","","self","f","0","true"
"null","<div style=""font-size:60px;"">+</div>","null","html-keyboard-response","298","344148","0.0-6.0-0.146","RHGA","4","f","rechts","19","","fixation","","","",""
"862","img/30_240.png","70","image-keyboard-response","299","345011","0.0-6.0-1.146","RHGA","4","f","rechts","19","","","self","f","30","true"
"null","<div style=""font-size:60px;"">+</div>","null","html-keyboard-response","300","345361","0.0-6.0-0.147","RHGA","4","f","rechts","19","","fixation","","","",""
"618","img/150_270.png","74","image-keyboard-response","301","345980","0.0-6.0-1.147","RHGA","4","f","rechts","19","","","self","j","150","true"
"null","<div style=""font-size:60px;"">+</div>","null","html-keyboard-response","302","346431","0.0-6.0-0.148","RHGA","4","f","rechts","19","","fixation","","","",""
"796","img/60_90.png","74","image-keyboard-response","303","347227","0.0-6.0-1.148","RHGA","4","f","rechts","19","","","self","j","60","true"
"null","<div style=""font-size:60px;"">+</div>","null","html-keyboard-response","304","347729","0.0-6.0-0.149","RHGA","4","f","rechts","19","","fixation","","","",""
"657","img/L90_180.png","70","image-keyboard-response","305","348387","0.0-6.0-1.149","RHGA","4","f","rechts","19","","","self","f","90","true"
"null","<div style=""font-size:60px;"">+</div>","null","html-keyboard-response","306","348888","0.0-6.0-0.150","RHGA","4","f","rechts","19","","fixation","","","",""
"880","img/90_300.png","70","image-keyboard-response","307","349769","0.0-6.0-1.150","RHGA","4","f","rechts","19","","","self","f","90","true"
"null","<div style=""font-size:60px;"">+</div>","null","html-keyboard-response","308","350220","0.0-6.0-0.151","RHGA","4","f","rechts","19","","fixation","","","",""
"689","img/120_210.png","74","image-keyboard-response","309","350910","0.0-6.0-1.151","RHGA","4","f","rechts","19","","","self","j","120","true"
"null","<div style=""font-size:60px;"">+</div>","null","html-keyboard-response","310","351361","0.0-6.0-0.152","RHGA","4","f","rechts","19","","fixation","","","",""
"671","img/30_90.png","70","image-keyboard-response","311","352032","0.0-6.0-1.152","RHGA","4","f","rechts","19","","","self","j","30","false"
"null","<div style=""font-size:60px;"">+</div>","null","html-keyboard-response","312","352533","0.0-6.0-0.153","RHGA","4","f","rechts","19","","fixation","","","",""
"652","img/120_270.png","74","image-keyboard-response","313","353185","0.0-6.0-1.153","RHGA","4","f","rechts","19","","","self","j","120","true"
"null","<div style=""font-size:60px;"">+</div>","null","html-keyboard-response","314","353636","0.0-6.0-0.154","RHGA","4","f","rechts","19","","fixation","","","",""
"916","img/90_60.png","74","image-keyboard-response","315","354552","0.0-6.0-1.154","RHGA","4","f","rechts","19","","","self","j","90","true"
"null","<div style=""font-size:60px;"">+</div>","null","html-keyboard-response","316","355003","0.0-6.0-0.155","RHGA","4","f","rechts","19","","fixation","","","",""
"654","img/30_180.png","74","image-keyboard-response","317","355657","0.0-6.0-1.155","RHGA","4","f","rechts","19","","","self","j","30","true"
"null","<div style=""font-size:60px;"">+</div>","null","html-keyboard-response","318","356158","0.0-6.0-0.156","RHGA","4","f","rechts","19","","fixation","","","",""
"678","img/150_270.png","74","image-keyboard-response","319","356838","0.0-6.0-1.156","RHGA","4","f","rechts","19","","","self","j","150","true"
"null","<div style=""font-size:60px;"">+</div>","null","html-keyboard-response","320","357138","0.0-6.0-0.157","RHGA","4","f","rechts","19","","fixation","","","",""
"774","img/60_90.png","74","image-keyboard-response","321","357913","0.0-6.0-1.157","RHGA","4","f","rechts","19","","","self","j","60","true"
"null","<div style=""font-size:60px;"">+</div>","null","html-keyboard-response","322","358414","0.0-6.0-0.158","RHGA","4","f","rechts","19","","fixation","","","",""
"1201","img/120_330.png","70","image-keyboard-response","323","359615","0.0-6.0-1.158","RHGA","4","f","rechts","19","","","self","f","120","true"
"null","<div style=""font-size:60px;"">+</div>","null","html-keyboard-response","324","359966","0.0-6.0-0.159","RHGA","4","f","rechts","19","","fixation","","","",""
"838","img/150_60.png","74","image-keyboard-response","325","360804","0.0-6.0-1.159","RHGA","4","f","rechts","19","","","self","f","150","false"
"null","<div style=""font-size:60px;"">+</div>","null","html-keyboard-response","326","361255","0.0-6.0-0.160","RHGA","4","f","rechts","19","","fixation","","","",""
"631","img/30_180.png","74","image-keyboard-response","327","361886","0.0-6.0-1.160","RHGA","4","f","rechts","19","","","self","j","30","true"
"null","<div style=""font-size:60px;"">+</div>","null","html-keyboard-response","328","362186","0.0-6.0-0.161","RHGA","4","f","rechts","19","","fixation","","","",""
"779","img/150_300.png","74","image-keyboard-response","329","362966","0.0-6.0-1.161","RHGA","4","f","rechts","19","","","self","j","150","true"
"null","<div style=""font-size:60px;"">+</div>","null","html-keyboard-response","330","363467","0.0-6.0-0.162","RHGA","4","f","rechts","19","","fixation","","","",""
"800","img/90_150.png","70","image-keyboard-response","331","364267","0.0-6.0-1.162","RHGA","4","f","rechts","19","","","self","f","90","true"
"null","<div style=""font-size:60px;"">+</div>","null","html-keyboard-response","332","364668","0.0-6.0-0.163","RHGA","4","f","rechts","19","","fixation","","","",""
"785","img/30_270.png","70","image-keyboard-response","333","365454","0.0-6.0-1.163","RHGA","4","f","rechts","19","","","self","f","30","true"
"null","<div style=""font-size:60px;"">+</div>","null","html-keyboard-response","334","365955","0.0-6.0-0.164","RHGA","4","f","rechts","19","","fixation","","","",""
"656","img/L90_180.png","70","image-keyboard-response","335","366612","0.0-6.0-1.164","RHGA","4","f","rechts","19","","","self","f","90","true"
"null","<div style=""font-size:60px;"">+</div>","null","html-keyboard-response","336","367114","0.0-6.0-0.165","RHGA","4","f","rechts","19","","fixation","","","",""
"486","img/0_90.png","74","image-keyboard-response","337","367600","0.0-6.0-1.165","RHGA","4","f","rechts","19","","","self","j","0","true"
"null","<div style=""font-size:60px;"">+</div>","null","html-keyboard-response","338","367901","0.0-6.0-0.166","RHGA","4","f","rechts","19","","fixation","","","",""
"640","img/0_60.png","74","image-keyboard-response","339","368542","0.0-6.0-1.166","RHGA","4","f","rechts","19","","","self","j","0","true"
"null","<div style=""font-size:60px;"">+</div>","null","html-keyboard-response","340","368993","0.0-6.0-0.167","RHGA","4","f","rechts","19","","fixation","","","",""
"648","img/30_300.png","70","image-keyboard-response","341","369641","0.0-6.0-1.167","RHGA","4","f","rechts","19","","","self","f","30","true"
"null","<div style=""font-size:60px;"">+</div>","null","html-keyboard-response","342","370142","0.0-6.0-0.168","RHGA","4","f","rechts","19","","fixation","","","",""
"805","img/150_240.png","74","image-keyboard-response","343","370947","0.0-6.0-1.168","RHGA","4","f","rechts","19","","","self","j","150","true"
"null","<div style=""font-size:60px;"">+</div>","null","html-keyboard-response","344","371348","0.0-6.0-0.169","RHGA","4","f","rechts","19","","fixation","","","",""
"634","img/0_210.png","70","image-keyboard-response","345","371982","0.0-6.0-1.169","RHGA","4","f","rechts","19","","","self","f","0","true"
"null","<div style=""font-size:60px;"">+</div>","null","html-keyboard-response","346","372433","0.0-6.0-0.170","RHGA","4","f","rechts","19","","fixation","","","",""
"690","img/90_330.png","70","image-keyboard-response","347","373124","0.0-6.0-1.170","RHGA","4","f","rechts","19","","","self","f","90","true"
"null","<div style=""font-size:60px;"">+</div>","null","html-keyboard-response","348","373525","0.0-6.0-0.171","RHGA","4","f","rechts","19","","fixation","","","",""
"807","img/60_330.png","70","image-keyboard-response","349","374332","0.0-6.0-1.171","RHGA","4","f","rechts","19","","","self","f","60","true"
"null","<div style=""font-size:60px;"">+</div>","null","html-keyboard-response","350","374783","0.0-6.0-0.172","RHGA","4","f","rechts","19","","fixation","","","",""
"877","img/90_30.png","74","image-keyboard-response","351","375661","0.0-6.0-1.172","RHGA","4","f","rechts","19","","","self","j","90","true"
"null","<div style=""font-size:60px;"">+</div>","null","html-keyboard-response","352","376162","0.0-6.0-0.173","RHGA","4","f","rechts","19","","fixation","","","",""
"661","img/30_120.png","74","image-keyboard-response","353","376823","0.0-6.0-1.173","RHGA","4","f","rechts","19","","","self","j","30","true"
"null","<div style=""font-size:60px;"">+</div>","null","html-keyboard-response","354","377275","0.0-6.0-0.174","RHGA","4","f","rechts","19","","fixation","","","",""
"654","img/0_270.png","70","image-keyboard-response","355","377930","0.0-6.0-1.174","RHGA","4","f","rechts","19","","","self","f","0","true"
"null","<div style=""font-size:60px;"">+</div>","null","html-keyboard-response","356","378380","0.0-6.0-0.175","RHGA","4","f","rechts","19","","fixation","","","",""
"780","img/90_240.png","74","image-keyboard-response","357","379161","0.0-6.0-1.175","RHGA","4","f","rechts","19","","","self","j","90","true"
"null","<div style=""font-size:60px;"">+</div>","null","html-keyboard-response","358","379511","0.0-6.0-0.176","RHGA","4","f","rechts","19","","fixation","","","",""
"662","img/L60_180.png","70","image-keyboard-response","359","380175","0.0-6.0-1.176","RHGA","4","f","rechts","19","","","self","f","60","true"
"null","<div style=""font-size:60px;"">+</div>","null","html-keyboard-response","360","380526","0.0-6.0-0.177","RHGA","4","f","rechts","19","","fixation","","","",""
"738","img/120_30.png","74","image-keyboard-response","361","381264","0.0-6.0-1.177","RHGA","4","f","rechts","19","","","self","j","120","true"
"null","<div style=""font-size:60px;"">+</div>","null","html-keyboard-response","362","381765","0.0-6.0-0.178","RHGA","4","f","rechts","19","","fixation","","","",""
"715","img/60_150.png","74","image-keyboard-response","363","382481","0.0-6.0-1.178","RHGA","4","f","rechts","19","","","self","f","60","false"
"null","<div style=""font-size:60px;"">+</div>","null","html-keyboard-response","364","382982","0.0-6.0-0.179","RHGA","4","f","rechts","19","","fixation","","","",""
"805","img/60_180.png","74","image-keyboard-response","365","383788","0.0-6.0-1.179","RHGA","4","f","rechts","19","","","self","j","60","true"
"null","<div style=""font-size:60px;"">+</div>","null","html-keyboard-response","366","384089","0.0-6.0-0.180","RHGA","4","f","rechts","19","","fixation","","","",""
"625","img/0_240.png","70","image-keyboard-response","367","384715","0.0-6.0-1.180","RHGA","4","f","rechts","19","","","self","f","0","true"
"null","<div style=""font-size:60px;"">+</div>","null","html-keyboard-response","368","385117","0.0-6.0-0.181","RHGA","4","f","rechts","19","","fixation","","","",""
"605","img/L30_180.png","70","image-keyboard-response","369","385723","0.0-6.0-1.181","RHGA","4","f","rechts","19","","","self","f","30","true"
"null","<div style=""font-size:60px;"">+</div>","null","html-keyboard-response","370","386225","0.0-6.0-0.182","RHGA","4","f","rechts","19","","fixation","","","",""
"757","img/90_60.png","74","image-keyboard-response","371","386982","0.0-6.0-1.182","RHGA","4","f","rechts","19","","","self","j","90","true"
"null","<div style=""font-size:60px;"">+</div>","null","html-keyboard-response","372","387384","0.0-6.0-0.183","RHGA","4","f","rechts","19","","fixation","","","",""
"622","img/0_120.png","74","image-keyboard-response","373","388007","0.0-6.0-1.183","RHGA","4","f","rechts","19","","","self","j","0","true"
"null","<div style=""font-size:60px;"">+</div>","null","html-keyboard-response","374","388408","0.0-6.0-0.184","RHGA","4","f","rechts","19","","fixation","","","",""
"666","img/0_150.png","74","image-keyboard-response","375","389075","0.0-6.0-1.184","RHGA","4","f","rechts","19","","","self","j","0","true"
"null","<div style=""font-size:60px;"">+</div>","null","html-keyboard-response","376","389577","0.0-6.0-0.185","RHGA","4","f","rechts","19","","fixation","","","",""
"762","img/90_180.png","74","image-keyboard-response","377","390339","0.0-6.0-1.185","RHGA","4","f","rechts","19","","","self","j","90","true"
"null","<div style=""font-size:60px;"">+</div>","null","html-keyboard-response","378","390841","0.0-6.0-0.186","RHGA","4","f","rechts","19","","fixation","","","",""
"559","img/150_180.png","74","image-keyboard-response","379","391400","0.0-6.0-1.186","RHGA","4","f","rechts","19","","","self","j","150","true"
"null","<div style=""font-size:60px;"">+</div>","null","html-keyboard-response","380","391801","0.0-6.0-0.187","RHGA","4","f","rechts","19","","fixation","","","",""
"760","img/150_90.png","70","image-keyboard-response","381","392561","0.0-6.0-1.187","RHGA","4","f","rechts","19","","","self","f","150","true"
"null","<div style=""font-size:60px;"">+</div>","null","html-keyboard-response","382","393012","0.0-6.0-0.188","RHGA","4","f","rechts","19","","fixation","","","",""
"798","img/120_90.png","70","image-keyboard-response","383","393811","0.0-6.0-1.188","RHGA","4","f","rechts","19","","","self","f","120","true"
"null","<div style=""font-size:60px;"">+</div>","null","html-keyboard-response","384","394112","0.0-6.0-0.189","RHGA","4","f","rechts","19","","fixation","","","",""
"874","img/90_300.png","70","image-keyboard-response","385","394986","0.0-6.0-1.189","RHGA","4","f","rechts","19","","","self","f","90","true"
"null","<div style=""font-size:60px;"">+</div>","null","html-keyboard-response","386","395387","0.0-6.0-0.190","RHGA","4","f","rechts","19","","fixation","","","",""
"559","img/120_180.png","74","image-keyboard-response","387","395946","0.0-6.0-1.190","RHGA","4","f","rechts","19","","","self","j","120","true"
"null","<div style=""font-size:60px;"">+</div>","null","html-keyboard-response","388","396348","0.0-6.0-0.191","RHGA","4","f","rechts","19","","fixation","","","",""
"600","img/L150_180.png","70","image-keyboard-response","389","396949","0.0-6.0-1.191","RHGA","4","f","rechts","19","","","self","f","150","true"
"null","<div style=""font-size:60px;"">+</div>","null","html-keyboard-response","390","397450","0.0-6.0-0.192","RHGA","4","f","rechts","19","","fixation","","","",""
"850","img/60_270.png","70","image-keyboard-response","391","398302","0.0-6.0-1.192","RHGA","4","f","rechts","19","","","self","f","60","true"
"null","<div style=""font-size:60px;"">+</div>","null","html-keyboard-response","392","398602","0.0-6.0-0.193","RHGA","4","f","rechts","19","","fixation","","","",""
"638","img/120_150.png","70","image-keyboard-response","393","399241","0.0-6.0-1.193","RHGA","4","f","rechts","19","","","self","f","120","true"
"null","<div style=""font-size:60px;"">+</div>","null","html-keyboard-response","394","399642","0.0-6.0-0.194","RHGA","4","f","rechts","19","","fixation","","","",""
"637","img/120_210.png","74","image-keyboard-response","395","400279","0.0-6.0-1.194","RHGA","4","f","rechts","19","","","self","j","120","true"
"null","<div style=""font-size:60px;"">+</div>","null","html-keyboard-response","396","400680","0.0-6.0-0.195","RHGA","4","f","rechts","19","","fixation","","","",""
"576","img/0_30.png","74","image-keyboard-response","397","401256","0.0-6.0-1.195","RHGA","4","f","rechts","19","","","self","j","0","true"
"null","<div style=""font-size:60px;"">+</div>","null","html-keyboard-response","398","401557","0.0-6.0-0.196","RHGA","4","f","rechts","19","","fixation","","","",""
"632","img/150_120.png","70","image-keyboard-response","399","402190","0.0-6.0-1.196","RHGA","4","f","rechts","19","","","self","f","150","true"
"null","<div style=""font-size:60px;"">+</div>","null","html-keyboard-response","400","402491","0.0-6.0-0.197","RHGA","4","f","rechts","19","","fixation","","","",""
"669","img/60_210.png","74","image-keyboard-response","401","403161","0.0-6.0-1.197","RHGA","4","f","rechts","19","","","self","j","60","true"
"null","<div style=""font-size:60px;"">+</div>","null","html-keyboard-response","402","403662","0.0-6.0-0.198","RHGA","4","f","rechts","19","","fixation","","","",""
"579","img/L120_180.png","70","image-keyboard-response","403","404241","0.0-6.0-1.198","RHGA","4","f","rechts","19","","","self","f","120","true"
"null","<div style=""font-size:60px;"">+</div>","null","html-keyboard-response","404","404641","0.0-6.0-0.199","RHGA","4","f","rechts","19","","fixation","","","",""
"759","img/30_90.png","74","image-keyboard-response","405","405401","0.0-6.0-1.199","RHGA","4","f","rechts","19","","","self","j","30","true"
"null","<div style=""font-size:60px;"">+</div>","null","html-keyboard-response","406","405802","0.0-6.0-0.200","RHGA","4","f","rechts","19","","fixation","","","",""
"682","img/90_120.png","70","image-keyboard-response","407","406484","0.0-6.0-1.200","RHGA","4","f","rechts","19","","","self","f","90","true"
"null","<div style=""font-size:60px;"">+</div>","null","html-keyboard-response","408","406836","0.0-6.0-0.201","RHGA","4","f","rechts","19","","fixation","","","",""
"607","img/90_210.png","74","image-keyboard-response","409","407443","0.0-6.0-1.201","RHGA","4","f","rechts","19","","","self","j","90","true"
"null","<div style=""font-size:60px;"">+</div>","null","html-keyboard-response","410","407794","0.0-6.0-0.202","RHGA","4","f","rechts","19","","fixation","","","",""
"585","img/120_270.png","74","image-keyboard-response","411","408381","0.0-6.0-1.202","RHGA","4","f","rechts","19","","","self","j","120","true"
"null","<div style=""font-size:60px;"">+</div>","null","html-keyboard-response","412","408732","0.0-6.0-0.203","RHGA","4","f","rechts","19","","fixation","","","",""
"649","img/60_30.png","74","image-keyboard-response","413","409381","0.0-6.0-1.203","RHGA","4","f","rechts","19","","","self","j","60","true"
"null","<div style=""font-size:60px;"">+</div>","null","html-keyboard-response","414","409782","0.0-6.0-0.204","RHGA","4","f","rechts","19","","fixation","","","",""
"582","img/30_60.png","74","image-keyboard-response","415","410364","0.0-6.0-1.204","RHGA","4","f","rechts","19","","","self","j","30","true"
"null","<div style=""font-size:60px;"">+</div>","null","html-keyboard-response","416","410866","0.0-6.0-0.205","RHGA","4","f","rechts","19","","fixation","","","",""
"602","img/30_240.png","70","image-keyboard-response","417","411468","0.0-6.0-1.205","RHGA","4","f","rechts","19","","","self","f","30","true"
"null","<div style=""font-size:60px;"">+</div>","null","html-keyboard-response","418","411918","0.0-6.0-0.206","RHGA","4","f","rechts","19","","fixation","","","",""
"526","img/0_330.png","70","image-keyboard-response","419","412445","0.0-6.0-1.206","RHGA","4","f","rechts","19","","","self","f","0","true"
"null","<div style=""font-size:60px;"">+</div>","null","html-keyboard-response","420","412795","0.0-6.0-0.207","RHGA","4","f","rechts","19","","fixation","","","",""
"587","img/0_300.png","70","image-keyboard-response","421","413383","0.0-6.0-1.207","RHGA","4","f","rechts","19","","","self","f","0","true"
"9598","<p>Du hast in 91% der Versuche korrekt entschieden.</p><p>Deine durchschnittliche Reaktionszeit war  699ms.</p><p>Dr&uuml;cke eine beliebige Taste, um die Session zu beenden. Vielen Dank!</p>","70","html-keyboard-response","422","422982","0.0-7.0","RHGA","4","f","rechts","19","","","","","",""
