"rt","stimulus","key_press","trial_type","trial_index","time_elapsed","internal_node_id","subject","session","sex","handedness","age","responses","test_part","condition","correct_response","angle","correct"
"23208","<p>Mental Rotation Experiment.</p> <p>Dr&uuml;cke eine beliebige Taste, um anzufangen.</p>","72","html-keyboard-response","0","23211","0.0-0.0","RHGA","1","f","rechts","19","","","","","",""
"3304","","","survey-text","1","26516","0.0-1.0","RHGA","1","f","rechts","19","{""Q0"":""RHGA""}","","","","",""
"2537","","","survey-text","2","29054","0.0-2.0","RHGA","1","f","rechts","19","{""Q0"":""1""}","","","","",""
"3907","","","survey-multi-choice","3","32963","0.0-3.0","RHGA","1","f","rechts","19","{""Q0"":""f"",""Q1"":""rechts""}","","","","",""
"2809","","","survey-text","4","35774","0.0-4.0","RHGA","1","f","rechts","19","{""Q0"":""19""}","","","","",""
"48552","<p> Stell dir vor, dass du vor einem runden Tisch stehst, auf dem sich ein blauer Ball am Tischrand befindet. Entlang des Tischrands ist jeweils ein verschieden langer Pfeil. Nun bewegst du dich entlang dieses Pfeils bis an seine Spitze. Wenn du am Ende des Pfeils angekommen bist, schau zur Tischmitte. </p> <img src='img/90_180.png'></img> <br> <p>Entscheide dann, ob der Ball von deiner neuen (vorgestellten) Position links oder rechts von dir liegt.</p> <p>Dr&uuml;cke die <strong>'f'</strong>-Taste f&uuml;r links, die <strong>'j'</strong>-Taste f&uuml;r rechts.</p> <br><p> Das Bild wird jeweils 1 Sekunde lang pr&auml;sentiert. Du hast 3 Sekunden Zeit eine Entscheidung zu treffen.</p>","74","html-keyboard-response","5","84327","0.0-5.0","RHGA","1","f","rechts","19","","","","","",""
"null","<div style=""font-size:60px;"">+</div>","null","html-keyboard-response","6","85729","0.0-6.0-0.0","RHGA","1","f","rechts","19","","fixation","","","",""
"1236","img/120_150.png","70","image-keyboard-response","7","86967","0.0-6.0-1.0","RHGA","1","f","rechts","19","","","self","f","120","true"
"null","<div style=""font-size:60px;"">+</div>","null","html-keyboard-response","8","87318","0.0-6.0-0.1","RHGA","1","f","rechts","19","","fixation","","","",""
"817","img/150_180.png","74","image-keyboard-response","9","88137","0.0-6.0-1.1","RHGA","1","f","rechts","19","","","self","j","150","true"
"null","<div style=""font-size:60px;"">+</div>","null","html-keyboard-response","10","88438","0.0-6.0-0.2","RHGA","1","f","rechts","19","","fixation","","","",""
"1257","img/60_210.png","74","image-keyboard-response","11","89696","0.0-6.0-1.2","RHGA","1","f","rechts","19","","","self","j","60","true"
"null","<div style=""font-size:60px;"">+</div>","null","html-keyboard-response","12","89998","0.0-6.0-0.3","RHGA","1","f","rechts","19","","fixation","","","",""
"1243","img/120_270.png","70","image-keyboard-response","13","91243","0.0-6.0-1.3","RHGA","1","f","rechts","19","","","self","j","120","false"
"null","<div style=""font-size:60px;"">+</div>","null","html-keyboard-response","14","91744","0.0-6.0-0.4","RHGA","1","f","rechts","19","","fixation","","","",""
"1587","img/120_330.png","70","image-keyboard-response","15","93332","0.0-6.0-1.4","RHGA","1","f","rechts","19","","","self","f","120","true"
"null","<div style=""font-size:60px;"">+</div>","null","html-keyboard-response","16","93633","0.0-6.0-0.5","RHGA","1","f","rechts","19","","fixation","","","",""
"1086","img/60_180.png","74","image-keyboard-response","17","94721","0.0-6.0-1.5","RHGA","1","f","rechts","19","","","self","j","60","true"
"null","<div style=""font-size:60px;"">+</div>","null","html-keyboard-response","18","95222","0.0-6.0-0.6","RHGA","1","f","rechts","19","","fixation","","","",""
"1182","img/90_30.png","70","image-keyboard-response","19","96405","0.0-6.0-1.6","RHGA","1","f","rechts","19","","","self","j","90","false"
"null","<div style=""font-size:60px;"">+</div>","null","html-keyboard-response","20","96905","0.0-6.0-0.7","RHGA","1","f","rechts","19","","fixation","","","",""
"1395","img/120_90.png","70","image-keyboard-response","21","98301","0.0-6.0-1.7","RHGA","1","f","rechts","19","","","self","f","120","true"
"null","<div style=""font-size:60px;"">+</div>","null","html-keyboard-response","22","98653","0.0-6.0-0.8","RHGA","1","f","rechts","19","","fixation","","","",""
"876","img/0_120.png","74","image-keyboard-response","23","99530","0.0-6.0-1.8","RHGA","1","f","rechts","19","","","self","j","0","true"
"null","<div style=""font-size:60px;"">+</div>","null","html-keyboard-response","24","100031","0.0-6.0-0.9","RHGA","1","f","rechts","19","","fixation","","","",""
"1915","img/90_60.png","74","image-keyboard-response","25","101948","0.0-6.0-1.9","RHGA","1","f","rechts","19","","","self","j","90","true"
"null","<div style=""font-size:60px;"">+</div>","null","html-keyboard-response","26","102349","0.0-6.0-0.10","RHGA","1","f","rechts","19","","fixation","","","",""
"1147","img/60_330.png","70","image-keyboard-response","27","103497","0.0-6.0-1.10","RHGA","1","f","rechts","19","","","self","f","60","true"
"null","<div style=""font-size:60px;"">+</div>","null","html-keyboard-response","28","103998","0.0-6.0-0.11","RHGA","1","f","rechts","19","","fixation","","","",""
"850","img/60_270.png","70","image-keyboard-response","29","104849","0.0-6.0-1.11","RHGA","1","f","rechts","19","","","self","f","60","true"
"null","<div style=""font-size:60px;"">+</div>","null","html-keyboard-response","30","105349","0.0-6.0-0.12","RHGA","1","f","rechts","19","","fixation","","","",""
"944","img/L60_180.png","70","image-keyboard-response","31","106294","0.0-6.0-1.12","RHGA","1","f","rechts","19","","","self","f","60","true"
"null","<div style=""font-size:60px;"">+</div>","null","html-keyboard-response","32","106595","0.0-6.0-0.13","RHGA","1","f","rechts","19","","fixation","","","",""
"1064","img/30_270.png","70","image-keyboard-response","33","107661","0.0-6.0-1.13","RHGA","1","f","rechts","19","","","self","f","30","true"
"null","<div style=""font-size:60px;"">+</div>","null","html-keyboard-response","34","108112","0.0-6.0-0.14","RHGA","1","f","rechts","19","","fixation","","","",""
"734","img/0_150.png","74","image-keyboard-response","35","108847","0.0-6.0-1.14","RHGA","1","f","rechts","19","","","self","j","0","true"
"null","<div style=""font-size:60px;"">+</div>","null","html-keyboard-response","36","109199","0.0-6.0-0.15","RHGA","1","f","rechts","19","","fixation","","","",""
"969","img/120_180.png","74","image-keyboard-response","37","110169","0.0-6.0-1.15","RHGA","1","f","rechts","19","","","self","j","120","true"
"null","<div style=""font-size:60px;"">+</div>","null","html-keyboard-response","38","110619","0.0-6.0-0.16","RHGA","1","f","rechts","19","","fixation","","","",""
"744","img/120_210.png","74","image-keyboard-response","39","111364","0.0-6.0-1.16","RHGA","1","f","rechts","19","","","self","j","120","true"
"null","<div style=""font-size:60px;"">+</div>","null","html-keyboard-response","40","111815","0.0-6.0-0.17","RHGA","1","f","rechts","19","","fixation","","","",""
"1010","img/90_300.png","70","image-keyboard-response","41","112826","0.0-6.0-1.17","RHGA","1","f","rechts","19","","","self","f","90","true"
"null","<div style=""font-size:60px;"">+</div>","null","html-keyboard-response","42","113277","0.0-6.0-0.18","RHGA","1","f","rechts","19","","fixation","","","",""
"875","img/90_150.png","70","image-keyboard-response","43","114154","0.0-6.0-1.18","RHGA","1","f","rechts","19","","","self","f","90","true"
"null","<div style=""font-size:60px;"">+</div>","null","html-keyboard-response","44","114455","0.0-6.0-0.19","RHGA","1","f","rechts","19","","fixation","","","",""
"746","img/0_210.png","70","image-keyboard-response","45","115202","0.0-6.0-1.19","RHGA","1","f","rechts","19","","","self","f","0","true"
"null","<div style=""font-size:60px;"">+</div>","null","html-keyboard-response","46","115553","0.0-6.0-0.20","RHGA","1","f","rechts","19","","fixation","","","",""
"917","img/150_90.png","70","image-keyboard-response","47","116472","0.0-6.0-1.20","RHGA","1","f","rechts","19","","","self","f","150","true"
"null","<div style=""font-size:60px;"">+</div>","null","html-keyboard-response","48","116774","0.0-6.0-0.21","RHGA","1","f","rechts","19","","fixation","","","",""
"1068","img/30_180.png","74","image-keyboard-response","49","117843","0.0-6.0-1.21","RHGA","1","f","rechts","19","","","self","j","30","true"
"null","<div style=""font-size:60px;"">+</div>","null","html-keyboard-response","50","118344","0.0-6.0-0.22","RHGA","1","f","rechts","19","","fixation","","","",""
"769","img/L90_180.png","70","image-keyboard-response","51","119114","0.0-6.0-1.22","RHGA","1","f","rechts","19","","","self","f","90","true"
"null","<div style=""font-size:60px;"">+</div>","null","html-keyboard-response","52","119616","0.0-6.0-0.23","RHGA","1","f","rechts","19","","fixation","","","",""
"901","img/90_120.png","70","image-keyboard-response","53","120518","0.0-6.0-1.23","RHGA","1","f","rechts","19","","","self","f","90","true"
"null","<div style=""font-size:60px;"">+</div>","null","html-keyboard-response","54","120819","0.0-6.0-0.24","RHGA","1","f","rechts","19","","fixation","","","",""
"759","img/90_180.png","74","image-keyboard-response","55","121579","0.0-6.0-1.24","RHGA","1","f","rechts","19","","","self","j","90","true"
"null","<div style=""font-size:60px;"">+</div>","null","html-keyboard-response","56","121880","0.0-6.0-0.25","RHGA","1","f","rechts","19","","fixation","","","",""
"1467","img/150_60.png","70","image-keyboard-response","57","123348","0.0-6.0-1.25","RHGA","1","f","rechts","19","","","self","f","150","true"
"null","<div style=""font-size:60px;"">+</div>","null","html-keyboard-response","58","123799","0.0-6.0-0.26","RHGA","1","f","rechts","19","","fixation","","","",""
"884","img/150_270.png","74","image-keyboard-response","59","124684","0.0-6.0-1.26","RHGA","1","f","rechts","19","","","self","j","150","true"
"null","<div style=""font-size:60px;"">+</div>","null","html-keyboard-response","60","124985","0.0-6.0-0.27","RHGA","1","f","rechts","19","","fixation","","","",""
"664","img/0_30.png","74","image-keyboard-response","61","125650","0.0-6.0-1.27","RHGA","1","f","rechts","19","","","self","j","0","true"
"null","<div style=""font-size:60px;"">+</div>","null","html-keyboard-response","62","126001","0.0-6.0-0.28","RHGA","1","f","rechts","19","","fixation","","","",""
"649","img/L150_180.png","70","image-keyboard-response","63","126652","0.0-6.0-1.28","RHGA","1","f","rechts","19","","","self","f","150","true"
"null","<div style=""font-size:60px;"">+</div>","null","html-keyboard-response","64","127054","0.0-6.0-0.29","RHGA","1","f","rechts","19","","fixation","","","",""
"1092","img/90_330.png","70","image-keyboard-response","65","128147","0.0-6.0-1.29","RHGA","1","f","rechts","19","","","self","f","90","true"
"null","<div style=""font-size:60px;"">+</div>","null","html-keyboard-response","66","128649","0.0-6.0-0.30","RHGA","1","f","rechts","19","","fixation","","","",""
"785","img/30_240.png","70","image-keyboard-response","67","129435","0.0-6.0-1.30","RHGA","1","f","rechts","19","","","self","f","30","true"
"null","<div style=""font-size:60px;"">+</div>","null","html-keyboard-response","68","129737","0.0-6.0-0.31","RHGA","1","f","rechts","19","","fixation","","","",""
"803","img/150_300.png","74","image-keyboard-response","69","130541","0.0-6.0-1.31","RHGA","1","f","rechts","19","","","self","j","150","true"
"null","<div style=""font-size:60px;"">+</div>","null","html-keyboard-response","70","130892","0.0-6.0-0.32","RHGA","1","f","rechts","19","","fixation","","","",""
"976","img/90_240.png","74","image-keyboard-response","71","131870","0.0-6.0-1.32","RHGA","1","f","rechts","19","","","self","j","90","true"
"null","<div style=""font-size:60px;"">+</div>","null","html-keyboard-response","72","132222","0.0-6.0-0.33","RHGA","1","f","rechts","19","","fixation","","","",""
"662","img/0_300.png","70","image-keyboard-response","73","132886","0.0-6.0-1.33","RHGA","1","f","rechts","19","","","self","f","0","true"
"null","<div style=""font-size:60px;"">+</div>","null","html-keyboard-response","74","133287","0.0-6.0-0.34","RHGA","1","f","rechts","19","","fixation","","","",""
"1090","img/120_30.png","74","image-keyboard-response","75","134380","0.0-6.0-1.34","RHGA","1","f","rechts","19","","","self","j","120","true"
"null","<div style=""font-size:60px;"">+</div>","null","html-keyboard-response","76","134730","0.0-6.0-0.35","RHGA","1","f","rechts","19","","fixation","","","",""
"742","img/30_300.png","70","image-keyboard-response","77","135473","0.0-6.0-1.35","RHGA","1","f","rechts","19","","","self","f","30","true"
"null","<div style=""font-size:60px;"">+</div>","null","html-keyboard-response","78","135874","0.0-6.0-0.36","RHGA","1","f","rechts","19","","fixation","","","",""
"642","img/0_60.png","74","image-keyboard-response","79","136518","0.0-6.0-1.36","RHGA","1","f","rechts","19","","","self","j","0","true"
"null","<div style=""font-size:60px;"">+</div>","null","html-keyboard-response","80","136919","0.0-6.0-0.37","RHGA","1","f","rechts","19","","fixation","","","",""
"1163","img/L30_180.png","70","image-keyboard-response","81","138082","0.0-6.0-1.37","RHGA","1","f","rechts","19","","","self","f","30","true"
"null","<div style=""font-size:60px;"">+</div>","null","html-keyboard-response","82","138483","0.0-6.0-0.38","RHGA","1","f","rechts","19","","fixation","","","",""
"737","img/0_240.png","70","image-keyboard-response","83","139221","0.0-6.0-1.38","RHGA","1","f","rechts","19","","","self","f","0","true"
"null","<div style=""font-size:60px;"">+</div>","null","html-keyboard-response","84","139573","0.0-6.0-0.39","RHGA","1","f","rechts","19","","fixation","","","",""
"1073","img/30_120.png","74","image-keyboard-response","85","140648","0.0-6.0-1.39","RHGA","1","f","rechts","19","","","self","j","30","true"
"null","<div style=""font-size:60px;"">+</div>","null","html-keyboard-response","86","141099","0.0-6.0-0.40","RHGA","1","f","rechts","19","","fixation","","","",""
"651","img/0_270.png","70","image-keyboard-response","87","141752","0.0-6.0-1.40","RHGA","1","f","rechts","19","","","self","f","0","true"
"null","<div style=""font-size:60px;"">+</div>","null","html-keyboard-response","88","142153","0.0-6.0-0.41","RHGA","1","f","rechts","19","","fixation","","","",""
"731","img/150_240.png","74","image-keyboard-response","89","142885","0.0-6.0-1.41","RHGA","1","f","rechts","19","","","self","j","150","true"
"null","<div style=""font-size:60px;"">+</div>","null","html-keyboard-response","90","143236","0.0-6.0-0.42","RHGA","1","f","rechts","19","","fixation","","","",""
"692","img/0_90.png","74","image-keyboard-response","91","143929","0.0-6.0-1.42","RHGA","1","f","rechts","19","","","self","j","0","true"
"null","<div style=""font-size:60px;"">+</div>","null","html-keyboard-response","92","144430","0.0-6.0-0.43","RHGA","1","f","rechts","19","","fixation","","","",""
"754","img/150_120.png","70","image-keyboard-response","93","145185","0.0-6.0-1.43","RHGA","1","f","rechts","19","","","self","f","150","true"
"null","<div style=""font-size:60px;"">+</div>","null","html-keyboard-response","94","145636","0.0-6.0-0.44","RHGA","1","f","rechts","19","","fixation","","","",""
"755","img/60_90.png","74","image-keyboard-response","95","146391","0.0-6.0-1.44","RHGA","1","f","rechts","19","","","self","j","60","true"
"null","<div style=""font-size:60px;"">+</div>","null","html-keyboard-response","96","146892","0.0-6.0-0.45","RHGA","1","f","rechts","19","","fixation","","","",""
"779","img/30_90.png","74","image-keyboard-response","97","147673","0.0-6.0-1.45","RHGA","1","f","rechts","19","","","self","j","30","true"
"null","<div style=""font-size:60px;"">+</div>","null","html-keyboard-response","98","148073","0.0-6.0-0.46","RHGA","1","f","rechts","19","","fixation","","","",""
"898","img/30_60.png","74","image-keyboard-response","99","148972","0.0-6.0-1.46","RHGA","1","f","rechts","19","","","self","j","30","true"
"null","<div style=""font-size:60px;"">+</div>","null","html-keyboard-response","100","149323","0.0-6.0-0.47","RHGA","1","f","rechts","19","","fixation","","","",""
"977","img/60_150.png","70","image-keyboard-response","101","150301","0.0-6.0-1.47","RHGA","1","f","rechts","19","","","self","f","60","true"
"null","<div style=""font-size:60px;"">+</div>","null","html-keyboard-response","102","150652","0.0-6.0-0.48","RHGA","1","f","rechts","19","","fixation","","","",""
"734","img/0_330.png","70","image-keyboard-response","103","151387","0.0-6.0-1.48","RHGA","1","f","rechts","19","","","self","f","0","true"
"null","<div style=""font-size:60px;"">+</div>","null","html-keyboard-response","104","151788","0.0-6.0-0.49","RHGA","1","f","rechts","19","","fixation","","","",""
"775","img/90_210.png","74","image-keyboard-response","105","152564","0.0-6.0-1.49","RHGA","1","f","rechts","19","","","self","j","90","true"
"null","<div style=""font-size:60px;"">+</div>","null","html-keyboard-response","106","153066","0.0-6.0-0.50","RHGA","1","f","rechts","19","","fixation","","","",""
"691","img/L120_180.png","70","image-keyboard-response","107","153759","0.0-6.0-1.50","RHGA","1","f","rechts","19","","","self","f","120","true"
"null","<div style=""font-size:60px;"">+</div>","null","html-keyboard-response","108","154110","0.0-6.0-0.51","RHGA","1","f","rechts","19","","fixation","","","",""
"775","img/60_30.png","74","image-keyboard-response","109","154886","0.0-6.0-1.51","RHGA","1","f","rechts","19","","","self","j","60","true"
"null","<div style=""font-size:60px;"">+</div>","null","html-keyboard-response","110","155237","0.0-6.0-0.52","RHGA","1","f","rechts","19","","fixation","","","",""
"808","img/150_90.png","70","image-keyboard-response","111","156046","0.0-6.0-1.52","RHGA","1","f","rechts","19","","","self","f","150","true"
"null","<div style=""font-size:60px;"">+</div>","null","html-keyboard-response","112","156397","0.0-6.0-0.53","RHGA","1","f","rechts","19","","fixation","","","",""
"927","img/90_60.png","74","image-keyboard-response","113","157324","0.0-6.0-1.53","RHGA","1","f","rechts","19","","","self","j","90","true"
"null","<div style=""font-size:60px;"">+</div>","null","html-keyboard-response","114","157675","0.0-6.0-0.54","RHGA","1","f","rechts","19","","fixation","","","",""
"696","img/60_270.png","70","image-keyboard-response","115","158373","0.0-6.0-1.54","RHGA","1","f","rechts","19","","","self","f","60","true"
"null","<div style=""font-size:60px;"">+</div>","null","html-keyboard-response","116","158874","0.0-6.0-0.55","RHGA","1","f","rechts","19","","fixation","","","",""
"819","img/30_270.png","70","image-keyboard-response","117","159693","0.0-6.0-1.55","RHGA","1","f","rechts","19","","","self","f","30","true"
"null","<div style=""font-size:60px;"">+</div>","null","html-keyboard-response","118","160195","0.0-6.0-0.56","RHGA","1","f","rechts","19","","fixation","","","",""
"939","img/90_30.png","74","image-keyboard-response","119","161135","0.0-6.0-1.56","RHGA","1","f","rechts","19","","","self","j","90","true"
"null","<div style=""font-size:60px;"">+</div>","null","html-keyboard-response","120","161587","0.0-6.0-0.57","RHGA","1","f","rechts","19","","fixation","","","",""
"936","img/150_60.png","74","image-keyboard-response","121","162524","0.0-6.0-1.57","RHGA","1","f","rechts","19","","","self","f","150","false"
"null","<div style=""font-size:60px;"">+</div>","null","html-keyboard-response","122","162875","0.0-6.0-0.58","RHGA","1","f","rechts","19","","fixation","","","",""
"1225","img/120_30.png","74","image-keyboard-response","123","164100","0.0-6.0-1.58","RHGA","1","f","rechts","19","","","self","j","120","true"
"null","<div style=""font-size:60px;"">+</div>","null","html-keyboard-response","124","164601","0.0-6.0-0.59","RHGA","1","f","rechts","19","","fixation","","","",""
"581","img/0_270.png","70","image-keyboard-response","125","165183","0.0-6.0-1.59","RHGA","1","f","rechts","19","","","self","f","0","true"
"null","<div style=""font-size:60px;"">+</div>","null","html-keyboard-response","126","165634","0.0-6.0-0.60","RHGA","1","f","rechts","19","","fixation","","","",""
"554","img/0_330.png","70","image-keyboard-response","127","166188","0.0-6.0-1.60","RHGA","1","f","rechts","19","","","self","f","0","true"
"null","<div style=""font-size:60px;"">+</div>","null","html-keyboard-response","128","166489","0.0-6.0-0.61","RHGA","1","f","rechts","19","","fixation","","","",""
"639","img/30_90.png","74","image-keyboard-response","129","167129","0.0-6.0-1.61","RHGA","1","f","rechts","19","","","self","j","30","true"
"null","<div style=""font-size:60px;"">+</div>","null","html-keyboard-response","130","167480","0.0-6.0-0.62","RHGA","1","f","rechts","19","","fixation","","","",""
"776","img/30_180.png","74","image-keyboard-response","131","168257","0.0-6.0-1.62","RHGA","1","f","rechts","19","","","self","j","30","true"
"null","<div style=""font-size:60px;"">+</div>","null","html-keyboard-response","132","168708","0.0-6.0-0.63","RHGA","1","f","rechts","19","","fixation","","","",""
"944","img/150_300.png","74","image-keyboard-response","133","169654","0.0-6.0-1.63","RHGA","1","f","rechts","19","","","self","j","150","true"
"null","<div style=""font-size:60px;"">+</div>","null","html-keyboard-response","134","170106","0.0-6.0-0.64","RHGA","1","f","rechts","19","","fixation","","","",""
"661","img/0_120.png","74","image-keyboard-response","135","170768","0.0-6.0-1.64","RHGA","1","f","rechts","19","","","self","j","0","true"
"null","<div style=""font-size:60px;"">+</div>","null","html-keyboard-response","136","171269","0.0-6.0-0.65","RHGA","1","f","rechts","19","","fixation","","","",""
"560","img/0_210.png","70","image-keyboard-response","137","171830","0.0-6.0-1.65","RHGA","1","f","rechts","19","","","self","f","0","true"
"null","<div style=""font-size:60px;"">+</div>","null","html-keyboard-response","138","172232","0.0-6.0-0.66","RHGA","1","f","rechts","19","","fixation","","","",""
"705","img/L150_180.png","70","image-keyboard-response","139","172939","0.0-6.0-1.66","RHGA","1","f","rechts","19","","","self","f","150","true"
"null","<div style=""font-size:60px;"">+</div>","null","html-keyboard-response","140","173389","0.0-6.0-0.67","RHGA","1","f","rechts","19","","fixation","","","",""
"720","img/150_270.png","74","image-keyboard-response","141","174110","0.0-6.0-1.67","RHGA","1","f","rechts","19","","","self","j","150","true"
"null","<div style=""font-size:60px;"">+</div>","null","html-keyboard-response","142","174461","0.0-6.0-0.68","RHGA","1","f","rechts","19","","fixation","","","",""
"683","img/120_180.png","74","image-keyboard-response","143","175145","0.0-6.0-1.68","RHGA","1","f","rechts","19","","","self","j","120","true"
"null","<div style=""font-size:60px;"">+</div>","null","html-keyboard-response","144","175496","0.0-6.0-0.69","RHGA","1","f","rechts","19","","fixation","","","",""
"786","img/150_180.png","74","image-keyboard-response","145","176283","0.0-6.0-1.69","RHGA","1","f","rechts","19","","","self","j","150","true"
"null","<div style=""font-size:60px;"">+</div>","null","html-keyboard-response","146","176734","0.0-6.0-0.70","RHGA","1","f","rechts","19","","fixation","","","",""
"null","img/120_330.png","null","image-keyboard-response","147","179735","0.0-6.0-1.70","RHGA","1","f","rechts","19","","","self","f","120","false"
"null","<div style=""font-size:60px;"">+</div>","null","html-keyboard-response","148","180235","0.0-6.0-0.71","RHGA","1","f","rechts","19","","fixation","","","",""
"723","img/90_330.png","70","image-keyboard-response","149","180959","0.0-6.0-1.71","RHGA","1","f","rechts","19","","","self","f","90","true"
"null","<div style=""font-size:60px;"">+</div>","null","html-keyboard-response","150","181460","0.0-6.0-0.72","RHGA","1","f","rechts","19","","fixation","","","",""
"686","img/L120_180.png","70","image-keyboard-response","151","182147","0.0-6.0-1.72","RHGA","1","f","rechts","19","","","self","f","120","true"
"null","<div style=""font-size:60px;"">+</div>","null","html-keyboard-response","152","182448","0.0-6.0-0.73","RHGA","1","f","rechts","19","","fixation","","","",""
"670","img/0_30.png","74","image-keyboard-response","153","183118","0.0-6.0-1.73","RHGA","1","f","rechts","19","","","self","j","0","true"
"null","<div style=""font-size:60px;"">+</div>","null","html-keyboard-response","154","183569","0.0-6.0-0.74","RHGA","1","f","rechts","19","","fixation","","","",""
"754","img/120_270.png","74","image-keyboard-response","155","184324","0.0-6.0-1.74","RHGA","1","f","rechts","19","","","self","j","120","true"
"null","<div style=""font-size:60px;"">+</div>","null","html-keyboard-response","156","184675","0.0-6.0-0.75","RHGA","1","f","rechts","19","","fixation","","","",""
"611","img/0_300.png","70","image-keyboard-response","157","185286","0.0-6.0-1.75","RHGA","1","f","rechts","19","","","self","f","0","true"
"null","<div style=""font-size:60px;"">+</div>","null","html-keyboard-response","158","185737","0.0-6.0-0.76","RHGA","1","f","rechts","19","","fixation","","","",""
"624","img/0_150.png","74","image-keyboard-response","159","186361","0.0-6.0-1.76","RHGA","1","f","rechts","19","","","self","j","0","true"
"null","<div style=""font-size:60px;"">+</div>","null","html-keyboard-response","160","186712","0.0-6.0-0.77","RHGA","1","f","rechts","19","","fixation","","","",""
"850","img/L60_180.png","70","image-keyboard-response","161","187562","0.0-6.0-1.77","RHGA","1","f","rechts","19","","","self","f","60","true"
"null","<div style=""font-size:60px;"">+</div>","null","html-keyboard-response","162","188064","0.0-6.0-0.78","RHGA","1","f","rechts","19","","fixation","","","",""
"641","img/0_240.png","70","image-keyboard-response","163","188706","0.0-6.0-1.78","RHGA","1","f","rechts","19","","","self","f","0","true"
"null","<div style=""font-size:60px;"">+</div>","null","html-keyboard-response","164","189158","0.0-6.0-0.79","RHGA","1","f","rechts","19","","fixation","","","",""
"843","img/120_90.png","70","image-keyboard-response","165","190001","0.0-6.0-1.79","RHGA","1","f","rechts","19","","","self","f","120","true"
"null","<div style=""font-size:60px;"">+</div>","null","html-keyboard-response","166","190352","0.0-6.0-0.80","RHGA","1","f","rechts","19","","fixation","","","",""
"649","img/30_120.png","74","image-keyboard-response","167","191001","0.0-6.0-1.80","RHGA","1","f","rechts","19","","","self","j","30","true"
"null","<div style=""font-size:60px;"">+</div>","null","html-keyboard-response","168","191352","0.0-6.0-0.81","RHGA","1","f","rechts","19","","fixation","","","",""
"710","img/60_330.png","70","image-keyboard-response","169","192062","0.0-6.0-1.81","RHGA","1","f","rechts","19","","","self","f","60","true"
"null","<div style=""font-size:60px;"">+</div>","null","html-keyboard-response","170","192363","0.0-6.0-0.82","RHGA","1","f","rechts","19","","fixation","","","",""
"890","img/30_240.png","70","image-keyboard-response","171","193254","0.0-6.0-1.82","RHGA","1","f","rechts","19","","","self","f","30","true"
"null","<div style=""font-size:60px;"">+</div>","null","html-keyboard-response","172","193655","0.0-6.0-0.83","RHGA","1","f","rechts","19","","fixation","","","",""
"810","img/60_150.png","74","image-keyboard-response","173","194466","0.0-6.0-1.83","RHGA","1","f","rechts","19","","","self","f","60","false"
"null","<div style=""font-size:60px;"">+</div>","null","html-keyboard-response","174","194817","0.0-6.0-0.84","RHGA","1","f","rechts","19","","fixation","","","",""
"734","img/L90_180.png","70","image-keyboard-response","175","195552","0.0-6.0-1.84","RHGA","1","f","rechts","19","","","self","f","90","true"
"null","<div style=""font-size:60px;"">+</div>","null","html-keyboard-response","176","195903","0.0-6.0-0.85","RHGA","1","f","rechts","19","","fixation","","","",""
"723","img/90_210.png","74","image-keyboard-response","177","196626","0.0-6.0-1.85","RHGA","1","f","rechts","19","","","self","j","90","true"
"null","<div style=""font-size:60px;"">+</div>","null","html-keyboard-response","178","197076","0.0-6.0-0.86","RHGA","1","f","rechts","19","","fixation","","","",""
"697","img/0_60.png","74","image-keyboard-response","179","197774","0.0-6.0-1.86","RHGA","1","f","rechts","19","","","self","j","0","true"
"null","<div style=""font-size:60px;"">+</div>","null","html-keyboard-response","180","198175","0.0-6.0-0.87","RHGA","1","f","rechts","19","","fixation","","","",""
"1148","img/90_300.png","70","image-keyboard-response","181","199323","0.0-6.0-1.87","RHGA","1","f","rechts","19","","","self","f","90","true"
"null","<div style=""font-size:60px;"">+</div>","null","html-keyboard-response","182","199674","0.0-6.0-0.88","RHGA","1","f","rechts","19","","fixation","","","",""
"982","img/90_120.png","70","image-keyboard-response","183","200656","0.0-6.0-1.88","RHGA","1","f","rechts","19","","","self","f","90","true"
"null","<div style=""font-size:60px;"">+</div>","null","html-keyboard-response","184","201108","0.0-6.0-0.89","RHGA","1","f","rechts","19","","fixation","","","",""
"804","img/L30_180.png","70","image-keyboard-response","185","201914","0.0-6.0-1.89","RHGA","1","f","rechts","19","","","self","f","30","true"
"null","<div style=""font-size:60px;"">+</div>","null","html-keyboard-response","186","202264","0.0-6.0-0.90","RHGA","1","f","rechts","19","","fixation","","","",""
"767","img/150_240.png","74","image-keyboard-response","187","203032","0.0-6.0-1.90","RHGA","1","f","rechts","19","","","self","j","150","true"
"null","<div style=""font-size:60px;"">+</div>","null","html-keyboard-response","188","203433","0.0-6.0-0.91","RHGA","1","f","rechts","19","","fixation","","","",""
"777","img/30_60.png","74","image-keyboard-response","189","204212","0.0-6.0-1.91","RHGA","1","f","rechts","19","","","self","j","30","true"
"null","<div style=""font-size:60px;"">+</div>","null","html-keyboard-response","190","204612","0.0-6.0-0.92","RHGA","1","f","rechts","19","","fixation","","","",""
"895","img/60_90.png","74","image-keyboard-response","191","205508","0.0-6.0-1.92","RHGA","1","f","rechts","19","","","self","j","60","true"
"null","<div style=""font-size:60px;"">+</div>","null","html-keyboard-response","192","206009","0.0-6.0-0.93","RHGA","1","f","rechts","19","","fixation","","","",""
"993","img/60_210.png","74","image-keyboard-response","193","207003","0.0-6.0-1.93","RHGA","1","f","rechts","19","","","self","j","60","true"
"null","<div style=""font-size:60px;"">+</div>","null","html-keyboard-response","194","207355","0.0-6.0-0.94","RHGA","1","f","rechts","19","","fixation","","","",""
"710","img/0_90.png","74","image-keyboard-response","195","208066","0.0-6.0-1.94","RHGA","1","f","rechts","19","","","self","j","0","true"
"null","<div style=""font-size:60px;"">+</div>","null","html-keyboard-response","196","208567","0.0-6.0-0.95","RHGA","1","f","rechts","19","","fixation","","","",""
"667","img/60_180.png","74","image-keyboard-response","197","209236","0.0-6.0-1.95","RHGA","1","f","rechts","19","","","self","j","60","true"
"null","<div style=""font-size:60px;"">+</div>","null","html-keyboard-response","198","209636","0.0-6.0-0.96","RHGA","1","f","rechts","19","","fixation","","","",""
"1075","img/60_30.png","74","image-keyboard-response","199","210713","0.0-6.0-1.96","RHGA","1","f","rechts","19","","","self","j","60","true"
"null","<div style=""font-size:60px;"">+</div>","null","html-keyboard-response","200","211014","0.0-6.0-0.97","RHGA","1","f","rechts","19","","fixation","","","",""
"702","img/90_180.png","74","image-keyboard-response","201","211717","0.0-6.0-1.97","RHGA","1","f","rechts","19","","","self","j","90","true"
"null","<div style=""font-size:60px;"">+</div>","null","html-keyboard-response","202","212118","0.0-6.0-0.98","RHGA","1","f","rechts","19","","fixation","","","",""
"713","img/120_210.png","74","image-keyboard-response","203","212833","0.0-6.0-1.98","RHGA","1","f","rechts","19","","","self","j","120","true"
"null","<div style=""font-size:60px;"">+</div>","null","html-keyboard-response","204","213184","0.0-6.0-0.99","RHGA","1","f","rechts","19","","fixation","","","",""
"737","img/120_150.png","70","image-keyboard-response","205","213922","0.0-6.0-1.99","RHGA","1","f","rechts","19","","","self","f","120","true"
"null","<div style=""font-size:60px;"">+</div>","null","html-keyboard-response","206","214274","0.0-6.0-0.100","RHGA","1","f","rechts","19","","fixation","","","",""
"1011","img/90_150.png","70","image-keyboard-response","207","215285","0.0-6.0-1.100","RHGA","1","f","rechts","19","","","self","f","90","true"
"null","<div style=""font-size:60px;"">+</div>","null","html-keyboard-response","208","215787","0.0-6.0-0.101","RHGA","1","f","rechts","19","","fixation","","","",""
"843","img/30_300.png","70","image-keyboard-response","209","216632","0.0-6.0-1.101","RHGA","1","f","rechts","19","","","self","f","30","true"
"null","<div style=""font-size:60px;"">+</div>","null","html-keyboard-response","210","216982","0.0-6.0-0.102","RHGA","1","f","rechts","19","","fixation","","","",""
"887","img/150_120.png","70","image-keyboard-response","211","217870","0.0-6.0-1.102","RHGA","1","f","rechts","19","","","self","f","150","true"
"null","<div style=""font-size:60px;"">+</div>","null","html-keyboard-response","212","218271","0.0-6.0-0.103","RHGA","1","f","rechts","19","","fixation","","","",""
"698","img/90_240.png","74","image-keyboard-response","213","218969","0.0-6.0-1.103","RHGA","1","f","rechts","19","","","self","j","90","true"
"null","<div style=""font-size:60px;"">+</div>","null","html-keyboard-response","214","219471","0.0-6.0-0.104","RHGA","1","f","rechts","19","","fixation","","","",""
"733","img/60_180.png","74","image-keyboard-response","215","220204","0.0-6.0-1.104","RHGA","1","f","rechts","19","","","self","j","60","true"
"null","<div style=""font-size:60px;"">+</div>","null","html-keyboard-response","216","220556","0.0-6.0-0.105","RHGA","1","f","rechts","19","","fixation","","","",""
"610","img/0_270.png","70","image-keyboard-response","217","221167","0.0-6.0-1.105","RHGA","1","f","rechts","19","","","self","f","0","true"
"null","<div style=""font-size:60px;"">+</div>","null","html-keyboard-response","218","221668","0.0-6.0-0.106","RHGA","1","f","rechts","19","","fixation","","","",""
"811","img/90_30.png","70","image-keyboard-response","219","222479","0.0-6.0-1.106","RHGA","1","f","rechts","19","","","self","j","90","false"
"null","<div style=""font-size:60px;"">+</div>","null","html-keyboard-response","220","222780","0.0-6.0-0.107","RHGA","1","f","rechts","19","","fixation","","","",""
"935","img/30_180.png","74","image-keyboard-response","221","223715","0.0-6.0-1.107","RHGA","1","f","rechts","19","","","self","j","30","true"
"null","<div style=""font-size:60px;"">+</div>","null","html-keyboard-response","222","224115","0.0-6.0-0.108","RHGA","1","f","rechts","19","","fixation","","","",""
"923","img/30_120.png","74","image-keyboard-response","223","225039","0.0-6.0-1.108","RHGA","1","f","rechts","19","","","self","j","30","true"
"null","<div style=""font-size:60px;"">+</div>","null","html-keyboard-response","224","225340","0.0-6.0-0.109","RHGA","1","f","rechts","19","","fixation","","","",""
"778","img/L120_180.png","70","image-keyboard-response","225","226118","0.0-6.0-1.109","RHGA","1","f","rechts","19","","","self","f","120","true"
"null","<div style=""font-size:60px;"">+</div>","null","html-keyboard-response","226","226518","0.0-6.0-0.110","RHGA","1","f","rechts","19","","fixation","","","",""
"681","img/0_60.png","74","image-keyboard-response","227","227200","0.0-6.0-1.110","RHGA","1","f","rechts","19","","","self","j","0","true"
"null","<div style=""font-size:60px;"">+</div>","null","html-keyboard-response","228","227601","0.0-6.0-0.111","RHGA","1","f","rechts","19","","fixation","","","",""
"605","img/0_120.png","74","image-keyboard-response","229","228207","0.0-6.0-1.111","RHGA","1","f","rechts","19","","","self","j","0","true"
"null","<div style=""font-size:60px;"">+</div>","null","html-keyboard-response","230","228708","0.0-6.0-0.112","RHGA","1","f","rechts","19","","fixation","","","",""
"1161","img/60_210.png","74","image-keyboard-response","231","229870","0.0-6.0-1.112","RHGA","1","f","rechts","19","","","self","j","60","true"
"null","<div style=""font-size:60px;"">+</div>","null","html-keyboard-response","232","230220","0.0-6.0-0.113","RHGA","1","f","rechts","19","","fixation","","","",""
"585","img/0_30.png","74","image-keyboard-response","233","230806","0.0-6.0-1.113","RHGA","1","f","rechts","19","","","self","j","0","true"
"null","<div style=""font-size:60px;"">+</div>","null","html-keyboard-response","234","231257","0.0-6.0-0.114","RHGA","1","f","rechts","19","","fixation","","","",""
"580","img/0_300.png","70","image-keyboard-response","235","231837","0.0-6.0-1.114","RHGA","1","f","rechts","19","","","self","f","0","true"
"null","<div style=""font-size:60px;"">+</div>","null","html-keyboard-response","236","232188","0.0-6.0-0.115","RHGA","1","f","rechts","19","","fixation","","","",""
"629","img/0_330.png","70","image-keyboard-response","237","232817","0.0-6.0-1.115","RHGA","1","f","rechts","19","","","self","f","0","true"
"null","<div style=""font-size:60px;"">+</div>","null","html-keyboard-response","238","233318","0.0-6.0-0.116","RHGA","1","f","rechts","19","","fixation","","","",""
"838","img/30_240.png","70","image-keyboard-response","239","234157","0.0-6.0-1.116","RHGA","1","f","rechts","19","","","self","f","30","true"
"null","<div style=""font-size:60px;"">+</div>","null","html-keyboard-response","240","234657","0.0-6.0-0.117","RHGA","1","f","rechts","19","","fixation","","","",""
"753","img/L90_180.png","70","image-keyboard-response","241","235411","0.0-6.0-1.117","RHGA","1","f","rechts","19","","","self","f","90","true"
"null","<div style=""font-size:60px;"">+</div>","null","html-keyboard-response","242","235811","0.0-6.0-0.118","RHGA","1","f","rechts","19","","fixation","","","",""
"859","img/L30_180.png","70","image-keyboard-response","243","236672","0.0-6.0-1.118","RHGA","1","f","rechts","19","","","self","f","30","true"
"null","<div style=""font-size:60px;"">+</div>","null","html-keyboard-response","244","237173","0.0-6.0-0.119","RHGA","1","f","rechts","19","","fixation","","","",""
"843","img/30_300.png","70","image-keyboard-response","245","238018","0.0-6.0-1.119","RHGA","1","f","rechts","19","","","self","f","30","true"
"null","<div style=""font-size:60px;"">+</div>","null","html-keyboard-response","246","238318","0.0-6.0-0.120","RHGA","1","f","rechts","19","","fixation","","","",""
"824","img/150_180.png","74","image-keyboard-response","247","239144","0.0-6.0-1.120","RHGA","1","f","rechts","19","","","self","j","150","true"
"null","<div style=""font-size:60px;"">+</div>","null","html-keyboard-response","248","239594","0.0-6.0-0.121","RHGA","1","f","rechts","19","","fixation","","","",""
"1101","img/30_90.png","70","image-keyboard-response","249","240697","0.0-6.0-1.121","RHGA","1","f","rechts","19","","","self","j","30","false"
"null","<div style=""font-size:60px;"">+</div>","null","html-keyboard-response","250","241097","0.0-6.0-0.122","RHGA","1","f","rechts","19","","fixation","","","",""
"785","img/120_150.png","70","image-keyboard-response","251","241884","0.0-6.0-1.122","RHGA","1","f","rechts","19","","","self","f","120","true"
"null","<div style=""font-size:60px;"">+</div>","null","html-keyboard-response","252","242284","0.0-6.0-0.123","RHGA","1","f","rechts","19","","fixation","","","",""
"718","img/90_210.png","74","image-keyboard-response","253","243003","0.0-6.0-1.123","RHGA","1","f","rechts","19","","","self","j","90","true"
"null","<div style=""font-size:60px;"">+</div>","null","html-keyboard-response","254","243454","0.0-6.0-0.124","RHGA","1","f","rechts","19","","fixation","","","",""
"604","img/0_90.png","74","image-keyboard-response","255","244058","0.0-6.0-1.124","RHGA","1","f","rechts","19","","","self","j","0","true"
"null","<div style=""font-size:60px;"">+</div>","null","html-keyboard-response","256","244559","0.0-6.0-0.125","RHGA","1","f","rechts","19","","fixation","","","",""
"855","img/90_60.png","74","image-keyboard-response","257","245414","0.0-6.0-1.125","RHGA","1","f","rechts","19","","","self","j","90","true"
"null","<div style=""font-size:60px;"">+</div>","null","html-keyboard-response","258","245865","0.0-6.0-0.126","RHGA","1","f","rechts","19","","fixation","","","",""
"1200","img/150_60.png","74","image-keyboard-response","259","247065","0.0-6.0-1.126","RHGA","1","f","rechts","19","","","self","f","150","false"
"null","<div style=""font-size:60px;"">+</div>","null","html-keyboard-response","260","247566","0.0-6.0-0.127","RHGA","1","f","rechts","19","","fixation","","","",""
"1088","img/150_90.png","74","image-keyboard-response","261","248654","0.0-6.0-1.127","RHGA","1","f","rechts","19","","","self","f","150","false"
"null","<div style=""font-size:60px;"">+</div>","null","html-keyboard-response","262","249055","0.0-6.0-0.128","RHGA","1","f","rechts","19","","fixation","","","",""
"958","img/L60_180.png","70","image-keyboard-response","263","250014","0.0-6.0-1.128","RHGA","1","f","rechts","19","","","self","f","60","true"
"null","<div style=""font-size:60px;"">+</div>","null","html-keyboard-response","264","250315","0.0-6.0-0.129","RHGA","1","f","rechts","19","","fixation","","","",""
"885","img/150_120.png","70","image-keyboard-response","265","251200","0.0-6.0-1.129","RHGA","1","f","rechts","19","","","self","f","150","true"
"null","<div style=""font-size:60px;"">+</div>","null","html-keyboard-response","266","251601","0.0-6.0-0.130","RHGA","1","f","rechts","19","","fixation","","","",""
"1002","img/30_270.png","70","image-keyboard-response","267","252603","0.0-6.0-1.130","RHGA","1","f","rechts","19","","","self","f","30","true"
"null","<div style=""font-size:60px;"">+</div>","null","html-keyboard-response","268","253005","0.0-6.0-0.131","RHGA","1","f","rechts","19","","fixation","","","",""
"862","img/150_300.png","74","image-keyboard-response","269","253868","0.0-6.0-1.131","RHGA","1","f","rechts","19","","","self","j","150","true"
"null","<div style=""font-size:60px;"">+</div>","null","html-keyboard-response","270","254219","0.0-6.0-0.132","RHGA","1","f","rechts","19","","fixation","","","",""
"908","img/120_30.png","74","image-keyboard-response","271","255128","0.0-6.0-1.132","RHGA","1","f","rechts","19","","","self","j","120","true"
"null","<div style=""font-size:60px;"">+</div>","null","html-keyboard-response","272","255480","0.0-6.0-0.133","RHGA","1","f","rechts","19","","fixation","","","",""
"1142","img/30_60.png","74","image-keyboard-response","273","256622","0.0-6.0-1.133","RHGA","1","f","rechts","19","","","self","j","30","true"
"null","<div style=""font-size:60px;"">+</div>","null","html-keyboard-response","274","257073","0.0-6.0-0.134","RHGA","1","f","rechts","19","","fixation","","","",""
"800","img/60_90.png","74","image-keyboard-response","275","257874","0.0-6.0-1.134","RHGA","1","f","rechts","19","","","self","j","60","true"
"null","<div style=""font-size:60px;"">+</div>","null","html-keyboard-response","276","258375","0.0-6.0-0.135","RHGA","1","f","rechts","19","","fixation","","","",""
"690","img/60_30.png","74","image-keyboard-response","277","259065","0.0-6.0-1.135","RHGA","1","f","rechts","19","","","self","j","60","true"
"null","<div style=""font-size:60px;"">+</div>","null","html-keyboard-response","278","259417","0.0-6.0-0.136","RHGA","1","f","rechts","19","","fixation","","","",""
"834","img/90_330.png","70","image-keyboard-response","279","260252","0.0-6.0-1.136","RHGA","1","f","rechts","19","","","self","f","90","true"
"null","<div style=""font-size:60px;"">+</div>","null","html-keyboard-response","280","260653","0.0-6.0-0.137","RHGA","1","f","rechts","19","","fixation","","","",""
"727","img/120_330.png","70","image-keyboard-response","281","261380","0.0-6.0-1.137","RHGA","1","f","rechts","19","","","self","f","120","true"
"null","<div style=""font-size:60px;"">+</div>","null","html-keyboard-response","282","261782","0.0-6.0-0.138","RHGA","1","f","rechts","19","","fixation","","","",""
"831","img/90_300.png","70","image-keyboard-response","283","262613","0.0-6.0-1.138","RHGA","1","f","rechts","19","","","self","f","90","true"
"null","<div style=""font-size:60px;"">+</div>","null","html-keyboard-response","284","263115","0.0-6.0-0.139","RHGA","1","f","rechts","19","","fixation","","","",""
"677","img/60_270.png","70","image-keyboard-response","285","263792","0.0-6.0-1.139","RHGA","1","f","rechts","19","","","self","f","60","true"
"null","<div style=""font-size:60px;"">+</div>","null","html-keyboard-response","286","264143","0.0-6.0-0.140","RHGA","1","f","rechts","19","","fixation","","","",""
"1086","img/120_90.png","70","image-keyboard-response","287","265229","0.0-6.0-1.140","RHGA","1","f","rechts","19","","","self","f","120","true"
"null","<div style=""font-size:60px;"">+</div>","null","html-keyboard-response","288","265680","0.0-6.0-0.141","RHGA","1","f","rechts","19","","fixation","","","",""
"631","img/90_120.png","74","image-keyboard-response","289","266312","0.0-6.0-1.141","RHGA","1","f","rechts","19","","","self","f","90","false"
"null","<div style=""font-size:60px;"">+</div>","null","html-keyboard-response","290","266613","0.0-6.0-0.142","RHGA","1","f","rechts","19","","fixation","","","",""
"1079","img/120_270.png","70","image-keyboard-response","291","267693","0.0-6.0-1.142","RHGA","1","f","rechts","19","","","self","j","120","false"
"null","<div style=""font-size:60px;"">+</div>","null","html-keyboard-response","292","268145","0.0-6.0-0.143","RHGA","1","f","rechts","19","","fixation","","","",""
"618","img/150_270.png","70","image-keyboard-response","293","268763","0.0-6.0-1.143","RHGA","1","f","rechts","19","","","self","j","150","false"
"null","<div style=""font-size:60px;"">+</div>","null","html-keyboard-response","294","269214","0.0-6.0-0.144","RHGA","1","f","rechts","19","","fixation","","","",""
"560","img/150_240.png","74","image-keyboard-response","295","269775","0.0-6.0-1.144","RHGA","1","f","rechts","19","","","self","j","150","true"
"null","<div style=""font-size:60px;"">+</div>","null","html-keyboard-response","296","270275","0.0-6.0-0.145","RHGA","1","f","rechts","19","","fixation","","","",""
"671","img/0_240.png","70","image-keyboard-response","297","270947","0.0-6.0-1.145","RHGA","1","f","rechts","19","","","self","f","0","true"
"null","<div style=""font-size:60px;"">+</div>","null","html-keyboard-response","298","271398","0.0-6.0-0.146","RHGA","1","f","rechts","19","","fixation","","","",""
"579","img/120_180.png","74","image-keyboard-response","299","271978","0.0-6.0-1.146","RHGA","1","f","rechts","19","","","self","j","120","true"
"null","<div style=""font-size:60px;"">+</div>","null","html-keyboard-response","300","272379","0.0-6.0-0.147","RHGA","1","f","rechts","19","","fixation","","","",""
"736","img/90_150.png","70","image-keyboard-response","301","273115","0.0-6.0-1.147","RHGA","1","f","rechts","19","","","self","f","90","true"
"null","<div style=""font-size:60px;"">+</div>","null","html-keyboard-response","302","273467","0.0-6.0-0.148","RHGA","1","f","rechts","19","","fixation","","","",""
"604","img/120_210.png","74","image-keyboard-response","303","274071","0.0-6.0-1.148","RHGA","1","f","rechts","19","","","self","j","120","true"
"null","<div style=""font-size:60px;"">+</div>","null","html-keyboard-response","304","274572","0.0-6.0-0.149","RHGA","1","f","rechts","19","","fixation","","","",""
"599","img/0_210.png","70","image-keyboard-response","305","275171","0.0-6.0-1.149","RHGA","1","f","rechts","19","","","self","f","0","true"
"null","<div style=""font-size:60px;"">+</div>","null","html-keyboard-response","306","275572","0.0-6.0-0.150","RHGA","1","f","rechts","19","","fixation","","","",""
"810","img/L150_180.png","70","image-keyboard-response","307","276384","0.0-6.0-1.150","RHGA","1","f","rechts","19","","","self","f","150","true"
"null","<div style=""font-size:60px;"">+</div>","null","html-keyboard-response","308","276784","0.0-6.0-0.151","RHGA","1","f","rechts","19","","fixation","","","",""
"710","img/0_150.png","74","image-keyboard-response","309","277495","0.0-6.0-1.151","RHGA","1","f","rechts","19","","","self","j","0","true"
"null","<div style=""font-size:60px;"">+</div>","null","html-keyboard-response","310","277946","0.0-6.0-0.152","RHGA","1","f","rechts","19","","fixation","","","",""
"723","img/90_240.png","70","image-keyboard-response","311","278669","0.0-6.0-1.152","RHGA","1","f","rechts","19","","","self","j","90","false"
"null","<div style=""font-size:60px;"">+</div>","null","html-keyboard-response","312","279071","0.0-6.0-0.153","RHGA","1","f","rechts","19","","fixation","","","",""
"831","img/90_180.png","74","image-keyboard-response","313","279904","0.0-6.0-1.153","RHGA","1","f","rechts","19","","","self","j","90","true"
"null","<div style=""font-size:60px;"">+</div>","null","html-keyboard-response","314","280304","0.0-6.0-0.154","RHGA","1","f","rechts","19","","fixation","","","",""
"753","img/60_330.png","70","image-keyboard-response","315","281058","0.0-6.0-1.154","RHGA","1","f","rechts","19","","","self","f","60","true"
"null","<div style=""font-size:60px;"">+</div>","null","html-keyboard-response","316","281509","0.0-6.0-0.155","RHGA","1","f","rechts","19","","fixation","","","",""
"838","img/60_150.png","70","image-keyboard-response","317","282348","0.0-6.0-1.155","RHGA","1","f","rechts","19","","","self","f","60","true"
"null","<div style=""font-size:60px;"">+</div>","null","html-keyboard-response","318","282699","0.0-6.0-0.156","RHGA","1","f","rechts","19","","fixation","","","",""
"916","img/30_300.png","70","image-keyboard-response","319","283615","0.0-6.0-1.156","RHGA","1","f","rechts","19","","","self","f","30","true"
"null","<div style=""font-size:60px;"">+</div>","null","html-keyboard-response","320","283916","0.0-6.0-0.157","RHGA","1","f","rechts","19","","fixation","","","",""
"808","img/60_330.png","70","image-keyboard-response","321","284724","0.0-6.0-1.157","RHGA","1","f","rechts","19","","","self","f","60","true"
"null","<div style=""font-size:60px;"">+</div>","null","html-keyboard-response","322","285025","0.0-6.0-0.158","RHGA","1","f","rechts","19","","fixation","","","",""
"942","img/30_120.png","74","image-keyboard-response","323","285968","0.0-6.0-1.158","RHGA","1","f","rechts","19","","","self","j","30","true"
"null","<div style=""font-size:60px;"">+</div>","null","html-keyboard-response","324","286269","0.0-6.0-0.159","RHGA","1","f","rechts","19","","fixation","","","",""
"872","img/30_90.png","74","image-keyboard-response","325","287142","0.0-6.0-1.159","RHGA","1","f","rechts","19","","","self","j","30","true"
"null","<div style=""font-size:60px;"">+</div>","null","html-keyboard-response","326","287644","0.0-6.0-0.160","RHGA","1","f","rechts","19","","fixation","","","",""
"632","img/0_240.png","70","image-keyboard-response","327","288276","0.0-6.0-1.160","RHGA","1","f","rechts","19","","","self","f","0","true"
"null","<div style=""font-size:60px;"">+</div>","null","html-keyboard-response","328","288677","0.0-6.0-0.161","RHGA","1","f","rechts","19","","fixation","","","",""
"697","img/0_330.png","70","image-keyboard-response","329","289375","0.0-6.0-1.161","RHGA","1","f","rechts","19","","","self","f","0","true"
"null","<div style=""font-size:60px;"">+</div>","null","html-keyboard-response","330","289776","0.0-6.0-0.162","RHGA","1","f","rechts","19","","fixation","","","",""
"750","img/90_210.png","74","image-keyboard-response","331","290526","0.0-6.0-1.162","RHGA","1","f","rechts","19","","","self","j","90","true"
"null","<div style=""font-size:60px;"">+</div>","null","html-keyboard-response","332","291027","0.0-6.0-0.163","RHGA","1","f","rechts","19","","fixation","","","",""
"579","img/90_240.png","74","image-keyboard-response","333","291606","0.0-6.0-1.163","RHGA","1","f","rechts","19","","","self","j","90","true"
"null","<div style=""font-size:60px;"">+</div>","null","html-keyboard-response","334","292107","0.0-6.0-0.164","RHGA","1","f","rechts","19","","fixation","","","",""
"794","img/60_150.png","70","image-keyboard-response","335","292903","0.0-6.0-1.164","RHGA","1","f","rechts","19","","","self","f","60","true"
"null","<div style=""font-size:60px;"">+</div>","null","html-keyboard-response","336","293203","0.0-6.0-0.165","RHGA","1","f","rechts","19","","fixation","","","",""
"1131","img/150_300.png","74","image-keyboard-response","337","294335","0.0-6.0-1.165","RHGA","1","f","rechts","19","","","self","j","150","true"
"null","<div style=""font-size:60px;"">+</div>","null","html-keyboard-response","338","294836","0.0-6.0-0.166","RHGA","1","f","rechts","19","","fixation","","","",""
"666","img/0_120.png","74","image-keyboard-response","339","295504","0.0-6.0-1.166","RHGA","1","f","rechts","19","","","self","j","0","true"
"null","<div style=""font-size:60px;"">+</div>","null","html-keyboard-response","340","295804","0.0-6.0-0.167","RHGA","1","f","rechts","19","","fixation","","","",""
"608","img/0_270.png","70","image-keyboard-response","341","296413","0.0-6.0-1.167","RHGA","1","f","rechts","19","","","self","f","0","true"
"null","<div style=""font-size:60px;"">+</div>","null","html-keyboard-response","342","296864","0.0-6.0-0.168","RHGA","1","f","rechts","19","","fixation","","","",""
"630","img/0_30.png","74","image-keyboard-response","343","297495","0.0-6.0-1.168","RHGA","1","f","rechts","19","","","self","j","0","true"
"null","<div style=""font-size:60px;"">+</div>","null","html-keyboard-response","344","297895","0.0-6.0-0.169","RHGA","1","f","rechts","19","","fixation","","","",""
"737","img/L30_180.png","70","image-keyboard-response","345","298633","0.0-6.0-1.169","RHGA","1","f","rechts","19","","","self","f","30","true"
"null","<div style=""font-size:60px;"">+</div>","null","html-keyboard-response","346","298984","0.0-6.0-0.170","RHGA","1","f","rechts","19","","fixation","","","",""
"694","img/0_90.png","74","image-keyboard-response","347","299679","0.0-6.0-1.170","RHGA","1","f","rechts","19","","","self","j","0","true"
"null","<div style=""font-size:60px;"">+</div>","null","html-keyboard-response","348","299980","0.0-6.0-0.171","RHGA","1","f","rechts","19","","fixation","","","",""
"862","img/60_30.png","74","image-keyboard-response","349","300843","0.0-6.0-1.171","RHGA","1","f","rechts","19","","","self","j","60","true"
"null","<div style=""font-size:60px;"">+</div>","null","html-keyboard-response","350","301344","0.0-6.0-0.172","RHGA","1","f","rechts","19","","fixation","","","",""
"619","img/L150_180.png","70","image-keyboard-response","351","301964","0.0-6.0-1.172","RHGA","1","f","rechts","19","","","self","f","150","true"
"null","<div style=""font-size:60px;"">+</div>","null","html-keyboard-response","352","302416","0.0-6.0-0.173","RHGA","1","f","rechts","19","","fixation","","","",""
"862","img/60_270.png","70","image-keyboard-response","353","303278","0.0-6.0-1.173","RHGA","1","f","rechts","19","","","self","f","60","true"
"null","<div style=""font-size:60px;"">+</div>","null","html-keyboard-response","354","303729","0.0-6.0-0.174","RHGA","1","f","rechts","19","","fixation","","","",""
"1566","img/90_30.png","74","image-keyboard-response","355","305295","0.0-6.0-1.174","RHGA","1","f","rechts","19","","","self","j","90","true"
"null","<div style=""font-size:60px;"">+</div>","null","html-keyboard-response","356","305696","0.0-6.0-0.175","RHGA","1","f","rechts","19","","fixation","","","",""
"726","img/30_60.png","74","image-keyboard-response","357","306423","0.0-6.0-1.175","RHGA","1","f","rechts","19","","","self","j","30","true"
"null","<div style=""font-size:60px;"">+</div>","null","html-keyboard-response","358","306724","0.0-6.0-0.176","RHGA","1","f","rechts","19","","fixation","","","",""
"905","img/120_90.png","70","image-keyboard-response","359","307630","0.0-6.0-1.176","RHGA","1","f","rechts","19","","","self","f","120","true"
"null","<div style=""font-size:60px;"">+</div>","null","html-keyboard-response","360","308031","0.0-6.0-0.177","RHGA","1","f","rechts","19","","fixation","","","",""
"738","img/90_120.png","70","image-keyboard-response","361","308770","0.0-6.0-1.177","RHGA","1","f","rechts","19","","","self","f","90","true"
"null","<div style=""font-size:60px;"">+</div>","null","html-keyboard-response","362","309272","0.0-6.0-0.178","RHGA","1","f","rechts","19","","fixation","","","",""
"616","img/0_150.png","74","image-keyboard-response","363","309889","0.0-6.0-1.178","RHGA","1","f","rechts","19","","","self","j","0","true"
"null","<div style=""font-size:60px;"">+</div>","null","html-keyboard-response","364","310290","0.0-6.0-0.179","RHGA","1","f","rechts","19","","fixation","","","",""
"603","img/90_150.png","70","image-keyboard-response","365","310893","0.0-6.0-1.179","RHGA","1","f","rechts","19","","","self","f","90","true"
"null","<div style=""font-size:60px;"">+</div>","null","html-keyboard-response","366","311395","0.0-6.0-0.180","RHGA","1","f","rechts","19","","fixation","","","",""
"724","img/150_180.png","74","image-keyboard-response","367","312119","0.0-6.0-1.180","RHGA","1","f","rechts","19","","","self","j","150","true"
"null","<div style=""font-size:60px;"">+</div>","null","html-keyboard-response","368","312470","0.0-6.0-0.181","RHGA","1","f","rechts","19","","fixation","","","",""
"928","img/90_300.png","70","image-keyboard-response","369","313399","0.0-6.0-1.181","RHGA","1","f","rechts","19","","","self","f","90","true"
"null","<div style=""font-size:60px;"">+</div>","null","html-keyboard-response","370","313700","0.0-6.0-0.182","RHGA","1","f","rechts","19","","fixation","","","",""
"1112","img/30_270.png","70","image-keyboard-response","371","314813","0.0-6.0-1.182","RHGA","1","f","rechts","19","","","self","f","30","true"
"null","<div style=""font-size:60px;"">+</div>","null","html-keyboard-response","372","315214","0.0-6.0-0.183","RHGA","1","f","rechts","19","","fixation","","","",""
"865","img/30_240.png","70","image-keyboard-response","373","316080","0.0-6.0-1.183","RHGA","1","f","rechts","19","","","self","f","30","true"
"null","<div style=""font-size:60px;"">+</div>","null","html-keyboard-response","374","316531","0.0-6.0-0.184","RHGA","1","f","rechts","19","","fixation","","","",""
"771","img/60_210.png","74","image-keyboard-response","375","317303","0.0-6.0-1.184","RHGA","1","f","rechts","19","","","self","j","60","true"
"null","<div style=""font-size:60px;"">+</div>","null","html-keyboard-response","376","317754","0.0-6.0-0.185","RHGA","1","f","rechts","19","","fixation","","","",""
"1595","img/150_90.png","70","image-keyboard-response","377","319350","0.0-6.0-1.185","RHGA","1","f","rechts","19","","","self","f","150","true"
"null","<div style=""font-size:60px;"">+</div>","null","html-keyboard-response","378","319751","0.0-6.0-0.186","RHGA","1","f","rechts","19","","fixation","","","",""
"909","img/150_270.png","74","image-keyboard-response","379","320661","0.0-6.0-1.186","RHGA","1","f","rechts","19","","","self","j","150","true"
"null","<div style=""font-size:60px;"">+</div>","null","html-keyboard-response","380","320962","0.0-6.0-0.187","RHGA","1","f","rechts","19","","fixation","","","",""
"1107","img/120_270.png","74","image-keyboard-response","381","322070","0.0-6.0-1.187","RHGA","1","f","rechts","19","","","self","j","120","true"
"null","<div style=""font-size:60px;"">+</div>","null","html-keyboard-response","382","322421","0.0-6.0-0.188","RHGA","1","f","rechts","19","","fixation","","","",""
"781","img/0_210.png","70","image-keyboard-response","383","323204","0.0-6.0-1.188","RHGA","1","f","rechts","19","","","self","f","0","true"
"null","<div style=""font-size:60px;"">+</div>","null","html-keyboard-response","384","323604","0.0-6.0-0.189","RHGA","1","f","rechts","19","","fixation","","","",""
"null","img/0_300.png","null","image-keyboard-response","385","326606","0.0-6.0-1.189","RHGA","1","f","rechts","19","","","self","f","0","false"
"null","<div style=""font-size:60px;"">+</div>","null","html-keyboard-response","386","326907","0.0-6.0-0.190","RHGA","1","f","rechts","19","","fixation","","","",""
"736","img/120_210.png","74","image-keyboard-response","387","327644","0.0-6.0-1.190","RHGA","1","f","rechts","19","","","self","j","120","true"
"null","<div style=""font-size:60px;"">+</div>","null","html-keyboard-response","388","328044","0.0-6.0-0.191","RHGA","1","f","rechts","19","","fixation","","","",""
"771","img/120_150.png","70","image-keyboard-response","389","328816","0.0-6.0-1.191","RHGA","1","f","rechts","19","","","self","f","120","true"
"null","<div style=""font-size:60px;"">+</div>","null","html-keyboard-response","390","329167","0.0-6.0-0.192","RHGA","1","f","rechts","19","","fixation","","","",""
"941","img/90_60.png","74","image-keyboard-response","391","330109","0.0-6.0-1.192","RHGA","1","f","rechts","19","","","self","j","90","true"
"null","<div style=""font-size:60px;"">+</div>","null","html-keyboard-response","392","330410","0.0-6.0-0.193","RHGA","1","f","rechts","19","","fixation","","","",""
"1025","img/L90_180.png","70","image-keyboard-response","393","331437","0.0-6.0-1.193","RHGA","1","f","rechts","19","","","self","f","90","true"
"null","<div style=""font-size:60px;"">+</div>","null","html-keyboard-response","394","331738","0.0-6.0-0.194","RHGA","1","f","rechts","19","","fixation","","","",""
"1531","img/120_30.png","74","image-keyboard-response","395","333270","0.0-6.0-1.194","RHGA","1","f","rechts","19","","","self","j","120","true"
"null","<div style=""font-size:60px;"">+</div>","null","html-keyboard-response","396","333571","0.0-6.0-0.195","RHGA","1","f","rechts","19","","fixation","","","",""
"792","img/150_240.png","74","image-keyboard-response","397","334364","0.0-6.0-1.195","RHGA","1","f","rechts","19","","","self","j","150","true"
"null","<div style=""font-size:60px;"">+</div>","null","html-keyboard-response","398","334866","0.0-6.0-0.196","RHGA","1","f","rechts","19","","fixation","","","",""
"762","img/60_180.png","74","image-keyboard-response","399","335628","0.0-6.0-1.196","RHGA","1","f","rechts","19","","","self","j","60","true"
"null","<div style=""font-size:60px;"">+</div>","null","html-keyboard-response","400","335929","0.0-6.0-0.197","RHGA","1","f","rechts","19","","fixation","","","",""
"807","img/90_330.png","70","image-keyboard-response","401","336737","0.0-6.0-1.197","RHGA","1","f","rechts","19","","","self","f","90","true"
"null","<div style=""font-size:60px;"">+</div>","null","html-keyboard-response","402","337038","0.0-6.0-0.198","RHGA","1","f","rechts","19","","fixation","","","",""
"715","img/120_330.png","70","image-keyboard-response","403","337753","0.0-6.0-1.198","RHGA","1","f","rechts","19","","","self","f","120","true"
"null","<div style=""font-size:60px;"">+</div>","null","html-keyboard-response","404","338105","0.0-6.0-0.199","RHGA","1","f","rechts","19","","fixation","","","",""
"1000","img/60_90.png","74","image-keyboard-response","405","339106","0.0-6.0-1.199","RHGA","1","f","rechts","19","","","self","j","60","true"
"null","<div style=""font-size:60px;"">+</div>","null","html-keyboard-response","406","339556","0.0-6.0-0.200","RHGA","1","f","rechts","19","","fixation","","","",""
"711","img/150_120.png","70","image-keyboard-response","407","340268","0.0-6.0-1.200","RHGA","1","f","rechts","19","","","self","f","150","true"
"null","<div style=""font-size:60px;"">+</div>","null","html-keyboard-response","408","340569","0.0-6.0-0.201","RHGA","1","f","rechts","19","","fixation","","","",""
"559","img/0_60.png","74","image-keyboard-response","409","341128","0.0-6.0-1.201","RHGA","1","f","rechts","19","","","self","j","0","true"
"null","<div style=""font-size:60px;"">+</div>","null","html-keyboard-response","410","341579","0.0-6.0-0.202","RHGA","1","f","rechts","19","","fixation","","","",""
"651","img/150_60.png","74","image-keyboard-response","411","342231","0.0-6.0-1.202","RHGA","1","f","rechts","19","","","self","f","150","false"
"null","<div style=""font-size:60px;"">+</div>","null","html-keyboard-response","412","342582","0.0-6.0-0.203","RHGA","1","f","rechts","19","","fixation","","","",""
"690","img/L120_180.png","70","image-keyboard-response","413","343273","0.0-6.0-1.203","RHGA","1","f","rechts","19","","","self","f","120","true"
"null","<div style=""font-size:60px;"">+</div>","null","html-keyboard-response","414","343774","0.0-6.0-0.204","RHGA","1","f","rechts","19","","fixation","","","",""
"666","img/L60_180.png","70","image-keyboard-response","415","344441","0.0-6.0-1.204","RHGA","1","f","rechts","19","","","self","f","60","true"
"null","<div style=""font-size:60px;"">+</div>","null","html-keyboard-response","416","344793","0.0-6.0-0.205","RHGA","1","f","rechts","19","","fixation","","","",""
"835","img/120_180.png","74","image-keyboard-response","417","345630","0.0-6.0-1.205","RHGA","1","f","rechts","19","","","self","j","120","true"
"null","<div style=""font-size:60px;"">+</div>","null","html-keyboard-response","418","345930","0.0-6.0-0.206","RHGA","1","f","rechts","19","","fixation","","","",""
"756","img/90_180.png","74","image-keyboard-response","419","346687","0.0-6.0-1.206","RHGA","1","f","rechts","19","","","self","j","90","true"
"null","<div style=""font-size:60px;"">+</div>","null","html-keyboard-response","420","347088","0.0-6.0-0.207","RHGA","1","f","rechts","19","","fixation","","","",""
"765","img/30_180.png","74","image-keyboard-response","421","347855","0.0-6.0-1.207","RHGA","1","f","rechts","19","","","self","j","30","true"
"24891","<p>Du hast in 90% der Versuche korrekt entschieden.</p><p>Deine durchschnittliche Reaktionszeit war  833ms.</p><p>Dr&uuml;cke eine beliebige Taste, um die Session zu beenden. Vielen Dank!</p>","70","html-keyboard-response","422","372750","0.0-7.0","RHGA","1","f","rechts","19","","","","","",""
