"rt","stimulus","key_press","trial_type","trial_index","time_elapsed","internal_node_id","subject","session","sex","handedness","age","responses","test_part","condition","correct_response","angle","correct"
"6031","<p>Mental Rotation Experiment.</p> <p>Dr&uuml;cke eine beliebige Taste, um anzufangen.</p>","70","html-keyboard-response","0","6033","0.0-0.0","RHGA","2","f","rechts","19","","","","","",""
"29606","","","survey-text","1","35646","0.0-1.0","RHGA","2","f","rechts","19","{""Q0"":""RHGA""}","","","","",""
"2496","","","survey-text","2","38145","0.0-2.0","RHGA","2","f","rechts","19","{""Q0"":""2""}","","","","",""
"3498","","","survey-multi-choice","3","41646","0.0-3.0","RHGA","2","f","rechts","19","{""Q0"":""f"",""Q1"":""rechts""}","","","","",""
"5126","","","survey-text","4","46774","0.0-4.0","RHGA","2","f","rechts","19","{""Q0"":""19""}","","","","",""
"163337","<p> Stell dir vor, dass du vor einem runden Tisch stehst, auf dem sich ein blauer Ball am Tischrand befindet. Entlang des Tischrands ist jeweils ein verschieden langer Pfeil. Nun bewegst du dich entlang dieses Pfeils bis an seine Spitze. Wenn du am Ende des Pfeils angekommen bist, schau zur Tischmitte. </p> <img src='img/90_180.png'></img> <br> <p>Entscheide dann, ob der Ball von deiner neuen (vorgestellten) Position links oder rechts von dir liegt.</p> <p>Dr&uuml;cke die <strong>'f'</strong>-Taste f&uuml;r links, die <strong>'j'</strong>-Taste f&uuml;r rechts.</p> <br><p> Das Bild wird jeweils 1 Sekunde lang pr&auml;sentiert. Du hast 3 Sekunden Zeit eine Entscheidung zu treffen.</p>","74","html-keyboard-response","5","210112","0.0-5.0","RHGA","2","f","rechts","19","","","","","",""
"null","<div style=""font-size:60px;"">+</div>","null","html-keyboard-response","6","211415","0.0-6.0-0.0","RHGA","2","f","rechts","19","","fixation","","","",""
"1136","img/90_60.png","74","image-keyboard-response","7","212553","0.0-6.0-1.0","RHGA","2","f","rechts","19","","","self","j","90","true"
"null","<div style=""font-size:60px;"">+</div>","null","html-keyboard-response","8","212855","0.0-6.0-0.1","RHGA","2","f","rechts","19","","fixation","","","",""
"696","img/120_150.png","70","image-keyboard-response","9","213552","0.0-6.0-1.1","RHGA","2","f","rechts","19","","","self","f","120","true"
"null","<div style=""font-size:60px;"">+</div>","null","html-keyboard-response","10","213903","0.0-6.0-0.2","RHGA","2","f","rechts","19","","fixation","","","",""
"999","img/120_30.png","70","image-keyboard-response","11","214903","0.0-6.0-1.2","RHGA","2","f","rechts","19","","","self","j","120","false"
"null","<div style=""font-size:60px;"">+</div>","null","html-keyboard-response","12","215254","0.0-6.0-0.3","RHGA","2","f","rechts","19","","fixation","","","",""
"723","img/60_180.png","74","image-keyboard-response","13","215978","0.0-6.0-1.3","RHGA","2","f","rechts","19","","","self","j","60","true"
"null","<div style=""font-size:60px;"">+</div>","null","html-keyboard-response","14","216478","0.0-6.0-0.4","RHGA","2","f","rechts","19","","fixation","","","",""
"942","img/150_90.png","70","image-keyboard-response","15","217422","0.0-6.0-1.4","RHGA","2","f","rechts","19","","","self","f","150","true"
"null","<div style=""font-size:60px;"">+</div>","null","html-keyboard-response","16","217823","0.0-6.0-0.5","RHGA","2","f","rechts","19","","fixation","","","",""
"675","img/30_180.png","74","image-keyboard-response","17","218500","0.0-6.0-1.5","RHGA","2","f","rechts","19","","","self","j","30","true"
"null","<div style=""font-size:60px;"">+</div>","null","html-keyboard-response","18","219000","0.0-6.0-0.6","RHGA","2","f","rechts","19","","fixation","","","",""
"698","img/150_270.png","74","image-keyboard-response","19","219699","0.0-6.0-1.6","RHGA","2","f","rechts","19","","","self","j","150","true"
"null","<div style=""font-size:60px;"">+</div>","null","html-keyboard-response","20","220200","0.0-6.0-0.7","RHGA","2","f","rechts","19","","fixation","","","",""
"685","img/0_210.png","70","image-keyboard-response","21","220887","0.0-6.0-1.7","RHGA","2","f","rechts","19","","","self","f","0","true"
"null","<div style=""font-size:60px;"">+</div>","null","html-keyboard-response","22","221237","0.0-6.0-0.8","RHGA","2","f","rechts","19","","fixation","","","",""
"689","img/0_300.png","70","image-keyboard-response","23","221927","0.0-6.0-1.8","RHGA","2","f","rechts","19","","","self","f","0","true"
"null","<div style=""font-size:60px;"">+</div>","null","html-keyboard-response","24","222328","0.0-6.0-0.9","RHGA","2","f","rechts","19","","fixation","","","",""
"572","img/120_180.png","74","image-keyboard-response","25","222901","0.0-6.0-1.9","RHGA","2","f","rechts","19","","","self","j","120","true"
"null","<div style=""font-size:60px;"">+</div>","null","html-keyboard-response","26","223352","0.0-6.0-0.10","RHGA","2","f","rechts","19","","fixation","","","",""
"590","img/150_180.png","74","image-keyboard-response","27","223943","0.0-6.0-1.10","RHGA","2","f","rechts","19","","","self","j","150","true"
"null","<div style=""font-size:60px;"">+</div>","null","html-keyboard-response","28","224444","0.0-6.0-0.11","RHGA","2","f","rechts","19","","fixation","","","",""
"723","img/90_240.png","70","image-keyboard-response","29","225169","0.0-6.0-1.11","RHGA","2","f","rechts","19","","","self","j","90","false"
"null","<div style=""font-size:60px;"">+</div>","null","html-keyboard-response","30","225670","0.0-6.0-0.12","RHGA","2","f","rechts","19","","fixation","","","",""
"590","img/120_210.png","74","image-keyboard-response","31","226261","0.0-6.0-1.12","RHGA","2","f","rechts","19","","","self","j","120","true"
"null","<div style=""font-size:60px;"">+</div>","null","html-keyboard-response","32","226563","0.0-6.0-0.13","RHGA","2","f","rechts","19","","fixation","","","",""
"923","img/90_300.png","70","image-keyboard-response","33","227488","0.0-6.0-1.13","RHGA","2","f","rechts","19","","","self","f","90","true"
"null","<div style=""font-size:60px;"">+</div>","null","html-keyboard-response","34","227839","0.0-6.0-0.14","RHGA","2","f","rechts","19","","fixation","","","",""
"673","img/0_330.png","70","image-keyboard-response","35","228513","0.0-6.0-1.14","RHGA","2","f","rechts","19","","","self","f","0","true"
"null","<div style=""font-size:60px;"">+</div>","null","html-keyboard-response","36","228815","0.0-6.0-0.15","RHGA","2","f","rechts","19","","fixation","","","",""
"845","img/30_90.png","70","image-keyboard-response","37","229661","0.0-6.0-1.15","RHGA","2","f","rechts","19","","","self","j","30","false"
"null","<div style=""font-size:60px;"">+</div>","null","html-keyboard-response","38","230063","0.0-6.0-0.16","RHGA","2","f","rechts","19","","fixation","","","",""
"759","img/60_210.png","74","image-keyboard-response","39","230824","0.0-6.0-1.16","RHGA","2","f","rechts","19","","","self","j","60","true"
"null","<div style=""font-size:60px;"">+</div>","null","html-keyboard-response","40","231175","0.0-6.0-0.17","RHGA","2","f","rechts","19","","fixation","","","",""
"679","img/0_240.png","70","image-keyboard-response","41","231855","0.0-6.0-1.17","RHGA","2","f","rechts","19","","","self","f","0","true"
"null","<div style=""font-size:60px;"">+</div>","null","html-keyboard-response","42","232206","0.0-6.0-0.18","RHGA","2","f","rechts","19","","fixation","","","",""
"659","img/0_150.png","74","image-keyboard-response","43","232868","0.0-6.0-1.18","RHGA","2","f","rechts","19","","","self","j","0","true"
"null","<div style=""font-size:60px;"">+</div>","null","html-keyboard-response","44","233369","0.0-6.0-0.19","RHGA","2","f","rechts","19","","fixation","","","",""
"806","img/90_150.png","70","image-keyboard-response","45","234176","0.0-6.0-1.19","RHGA","2","f","rechts","19","","","self","f","90","true"
"null","<div style=""font-size:60px;"">+</div>","null","html-keyboard-response","46","234677","0.0-6.0-0.20","RHGA","2","f","rechts","19","","fixation","","","",""
"836","img/90_330.png","70","image-keyboard-response","47","235514","0.0-6.0-1.20","RHGA","2","f","rechts","19","","","self","f","90","true"
"null","<div style=""font-size:60px;"">+</div>","null","html-keyboard-response","48","235815","0.0-6.0-0.21","RHGA","2","f","rechts","19","","fixation","","","",""
"809","img/120_90.png","70","image-keyboard-response","49","236625","0.0-6.0-1.21","RHGA","2","f","rechts","19","","","self","f","120","true"
"null","<div style=""font-size:60px;"">+</div>","null","html-keyboard-response","50","237076","0.0-6.0-0.22","RHGA","2","f","rechts","19","","fixation","","","",""
"1124","img/30_120.png","74","image-keyboard-response","51","238201","0.0-6.0-1.22","RHGA","2","f","rechts","19","","","self","j","30","true"
"null","<div style=""font-size:60px;"">+</div>","null","html-keyboard-response","52","238602","0.0-6.0-0.23","RHGA","2","f","rechts","19","","fixation","","","",""
"599","img/0_90.png","74","image-keyboard-response","53","239202","0.0-6.0-1.23","RHGA","2","f","rechts","19","","","self","j","0","true"
"null","<div style=""font-size:60px;"">+</div>","null","html-keyboard-response","54","239703","0.0-6.0-0.24","RHGA","2","f","rechts","19","","fixation","","","",""
"658","img/150_240.png","74","image-keyboard-response","55","240363","0.0-6.0-1.24","RHGA","2","f","rechts","19","","","self","j","150","true"
"null","<div style=""font-size:60px;"">+</div>","null","html-keyboard-response","56","240664","0.0-6.0-0.25","RHGA","2","f","rechts","19","","fixation","","","",""
"830","img/60_30.png","74","image-keyboard-response","57","241496","0.0-6.0-1.25","RHGA","2","f","rechts","19","","","self","j","60","true"
"null","<div style=""font-size:60px;"">+</div>","null","html-keyboard-response","58","241946","0.0-6.0-0.26","RHGA","2","f","rechts","19","","fixation","","","",""
"683","img/30_240.png","74","image-keyboard-response","59","242630","0.0-6.0-1.26","RHGA","2","f","rechts","19","","","self","f","30","false"
"null","<div style=""font-size:60px;"">+</div>","null","html-keyboard-response","60","243131","0.0-6.0-0.27","RHGA","2","f","rechts","19","","fixation","","","",""
"764","img/L30_180.png","70","image-keyboard-response","61","243896","0.0-6.0-1.27","RHGA","2","f","rechts","19","","","self","f","30","true"
"null","<div style=""font-size:60px;"">+</div>","null","html-keyboard-response","62","244198","0.0-6.0-0.28","RHGA","2","f","rechts","19","","fixation","","","",""
"1063","img/90_30.png","70","image-keyboard-response","63","245261","0.0-6.0-1.28","RHGA","2","f","rechts","19","","","self","j","90","false"
"null","<div style=""font-size:60px;"">+</div>","null","html-keyboard-response","64","245663","0.0-6.0-0.29","RHGA","2","f","rechts","19","","fixation","","","",""
"653","img/0_60.png","74","image-keyboard-response","65","246317","0.0-6.0-1.29","RHGA","2","f","rechts","19","","","self","j","0","true"
"null","<div style=""font-size:60px;"">+</div>","null","html-keyboard-response","66","246669","0.0-6.0-0.30","RHGA","2","f","rechts","19","","fixation","","","",""
"661","img/150_120.png","70","image-keyboard-response","67","247331","0.0-6.0-1.30","RHGA","2","f","rechts","19","","","self","f","150","true"
"null","<div style=""font-size:60px;"">+</div>","null","html-keyboard-response","68","247782","0.0-6.0-0.31","RHGA","2","f","rechts","19","","fixation","","","",""
"715","img/90_120.png","70","image-keyboard-response","69","248498","0.0-6.0-1.31","RHGA","2","f","rechts","19","","","self","f","90","true"
"null","<div style=""font-size:60px;"">+</div>","null","html-keyboard-response","70","248850","0.0-6.0-0.32","RHGA","2","f","rechts","19","","fixation","","","",""
"981","img/30_300.png","70","image-keyboard-response","71","249833","0.0-6.0-1.32","RHGA","2","f","rechts","19","","","self","f","30","true"
"null","<div style=""font-size:60px;"">+</div>","null","html-keyboard-response","72","250134","0.0-6.0-0.33","RHGA","2","f","rechts","19","","fixation","","","",""
"718","img/90_180.png","74","image-keyboard-response","73","250853","0.0-6.0-1.33","RHGA","2","f","rechts","19","","","self","j","90","true"
"null","<div style=""font-size:60px;"">+</div>","null","html-keyboard-response","74","251203","0.0-6.0-0.34","RHGA","2","f","rechts","19","","fixation","","","",""
"1064","img/120_330.png","70","image-keyboard-response","75","252268","0.0-6.0-1.34","RHGA","2","f","rechts","19","","","self","f","120","true"
"null","<div style=""font-size:60px;"">+</div>","null","html-keyboard-response","76","252720","0.0-6.0-0.35","RHGA","2","f","rechts","19","","fixation","","","",""
"540","img/0_30.png","74","image-keyboard-response","77","253261","0.0-6.0-1.35","RHGA","2","f","rechts","19","","","self","j","0","true"
"null","<div style=""font-size:60px;"">+</div>","null","html-keyboard-response","78","253662","0.0-6.0-0.36","RHGA","2","f","rechts","19","","fixation","","","",""
"711","img/30_270.png","70","image-keyboard-response","79","254378","0.0-6.0-1.36","RHGA","2","f","rechts","19","","","self","f","30","true"
"null","<div style=""font-size:60px;"">+</div>","null","html-keyboard-response","80","254729","0.0-6.0-0.37","RHGA","2","f","rechts","19","","fixation","","","",""
"675","img/L60_180.png","70","image-keyboard-response","81","255405","0.0-6.0-1.37","RHGA","2","f","rechts","19","","","self","f","60","true"
"null","<div style=""font-size:60px;"">+</div>","null","html-keyboard-response","82","255806","0.0-6.0-0.38","RHGA","2","f","rechts","19","","fixation","","","",""
"565","img/0_120.png","74","image-keyboard-response","83","256372","0.0-6.0-1.38","RHGA","2","f","rechts","19","","","self","j","0","true"
"null","<div style=""font-size:60px;"">+</div>","null","html-keyboard-response","84","256823","0.0-6.0-0.39","RHGA","2","f","rechts","19","","fixation","","","",""
"532","img/0_270.png","70","image-keyboard-response","85","257356","0.0-6.0-1.39","RHGA","2","f","rechts","19","","","self","f","0","true"
"null","<div style=""font-size:60px;"">+</div>","null","html-keyboard-response","86","257658","0.0-6.0-0.40","RHGA","2","f","rechts","19","","fixation","","","",""
"697","img/60_150.png","70","image-keyboard-response","87","258356","0.0-6.0-1.40","RHGA","2","f","rechts","19","","","self","f","60","true"
"null","<div style=""font-size:60px;"">+</div>","null","html-keyboard-response","88","258757","0.0-6.0-0.41","RHGA","2","f","rechts","19","","fixation","","","",""
"720","img/30_60.png","74","image-keyboard-response","89","259479","0.0-6.0-1.41","RHGA","2","f","rechts","19","","","self","j","30","true"
"null","<div style=""font-size:60px;"">+</div>","null","html-keyboard-response","90","259980","0.0-6.0-0.42","RHGA","2","f","rechts","19","","fixation","","","",""
"578","img/90_210.png","74","image-keyboard-response","91","260560","0.0-6.0-1.42","RHGA","2","f","rechts","19","","","self","j","90","true"
"null","<div style=""font-size:60px;"">+</div>","null","html-keyboard-response","92","260911","0.0-6.0-0.43","RHGA","2","f","rechts","19","","fixation","","","",""
"651","img/120_270.png","74","image-keyboard-response","93","261563","0.0-6.0-1.43","RHGA","2","f","rechts","19","","","self","j","120","true"
"null","<div style=""font-size:60px;"">+</div>","null","html-keyboard-response","94","262064","0.0-6.0-0.44","RHGA","2","f","rechts","19","","fixation","","","",""
"592","img/L150_180.png","70","image-keyboard-response","95","262657","0.0-6.0-1.44","RHGA","2","f","rechts","19","","","self","f","150","true"
"null","<div style=""font-size:60px;"">+</div>","null","html-keyboard-response","96","263108","0.0-6.0-0.45","RHGA","2","f","rechts","19","","fixation","","","",""
"720","img/60_330.png","70","image-keyboard-response","97","263831","0.0-6.0-1.45","RHGA","2","f","rechts","19","","","self","f","60","true"
"null","<div style=""font-size:60px;"">+</div>","null","html-keyboard-response","98","264231","0.0-6.0-0.46","RHGA","2","f","rechts","19","","fixation","","","",""
"727","img/L90_180.png","70","image-keyboard-response","99","264960","0.0-6.0-1.46","RHGA","2","f","rechts","19","","","self","f","90","true"
"null","<div style=""font-size:60px;"">+</div>","null","html-keyboard-response","100","265460","0.0-6.0-0.47","RHGA","2","f","rechts","19","","fixation","","","",""
"590","img/L120_180.png","70","image-keyboard-response","101","266051","0.0-6.0-1.47","RHGA","2","f","rechts","19","","","self","f","120","true"
"null","<div style=""font-size:60px;"">+</div>","null","html-keyboard-response","102","266452","0.0-6.0-0.48","RHGA","2","f","rechts","19","","fixation","","","",""
"627","img/60_90.png","74","image-keyboard-response","103","267081","0.0-6.0-1.48","RHGA","2","f","rechts","19","","","self","j","60","true"
"null","<div style=""font-size:60px;"">+</div>","null","html-keyboard-response","104","267382","0.0-6.0-0.49","RHGA","2","f","rechts","19","","fixation","","","",""
"605","img/150_300.png","74","image-keyboard-response","105","267990","0.0-6.0-1.49","RHGA","2","f","rechts","19","","","self","j","150","true"
"null","<div style=""font-size:60px;"">+</div>","null","html-keyboard-response","106","268341","0.0-6.0-0.50","RHGA","2","f","rechts","19","","fixation","","","",""
"1150","img/150_60.png","70","image-keyboard-response","107","269493","0.0-6.0-1.50","RHGA","2","f","rechts","19","","","self","f","150","true"
"null","<div style=""font-size:60px;"">+</div>","null","html-keyboard-response","108","269843","0.0-6.0-0.51","RHGA","2","f","rechts","19","","fixation","","","",""
"747","img/60_270.png","70","image-keyboard-response","109","270591","0.0-6.0-1.51","RHGA","2","f","rechts","19","","","self","f","60","true"
"null","<div style=""font-size:60px;"">+</div>","null","html-keyboard-response","110","271043","0.0-6.0-0.52","RHGA","2","f","rechts","19","","fixation","","","",""
"1120","img/150_300.png","74","image-keyboard-response","111","272164","0.0-6.0-1.52","RHGA","2","f","rechts","19","","","self","j","150","true"
"null","<div style=""font-size:60px;"">+</div>","null","html-keyboard-response","112","272614","0.0-6.0-0.53","RHGA","2","f","rechts","19","","fixation","","","",""
"635","img/150_240.png","74","image-keyboard-response","113","273250","0.0-6.0-1.53","RHGA","2","f","rechts","19","","","self","j","150","true"
"null","<div style=""font-size:60px;"">+</div>","null","html-keyboard-response","114","273701","0.0-6.0-0.54","RHGA","2","f","rechts","19","","fixation","","","",""
"660","img/0_210.png","70","image-keyboard-response","115","274362","0.0-6.0-1.54","RHGA","2","f","rechts","19","","","self","f","0","true"
"null","<div style=""font-size:60px;"">+</div>","null","html-keyboard-response","116","274663","0.0-6.0-0.55","RHGA","2","f","rechts","19","","fixation","","","",""
"705","img/0_300.png","70","image-keyboard-response","117","275370","0.0-6.0-1.55","RHGA","2","f","rechts","19","","","self","f","0","true"
"null","<div style=""font-size:60px;"">+</div>","null","html-keyboard-response","118","275670","0.0-6.0-0.56","RHGA","2","f","rechts","19","","fixation","","","",""
"883","img/90_330.png","70","image-keyboard-response","119","276555","0.0-6.0-1.56","RHGA","2","f","rechts","19","","","self","f","90","true"
"null","<div style=""font-size:60px;"">+</div>","null","html-keyboard-response","120","277055","0.0-6.0-0.57","RHGA","2","f","rechts","19","","fixation","","","",""
"1113","img/150_60.png","70","image-keyboard-response","121","278169","0.0-6.0-1.57","RHGA","2","f","rechts","19","","","self","f","150","true"
"null","<div style=""font-size:60px;"">+</div>","null","html-keyboard-response","122","278671","0.0-6.0-0.58","RHGA","2","f","rechts","19","","fixation","","","",""
"712","img/90_240.png","74","image-keyboard-response","123","279383","0.0-6.0-1.58","RHGA","2","f","rechts","19","","","self","j","90","true"
"null","<div style=""font-size:60px;"">+</div>","null","html-keyboard-response","124","279884","0.0-6.0-0.59","RHGA","2","f","rechts","19","","fixation","","","",""
"759","img/90_150.png","70","image-keyboard-response","125","280645","0.0-6.0-1.59","RHGA","2","f","rechts","19","","","self","f","90","true"
"null","<div style=""font-size:60px;"">+</div>","null","html-keyboard-response","126","281046","0.0-6.0-0.60","RHGA","2","f","rechts","19","","fixation","","","",""
"1222","img/120_30.png","74","image-keyboard-response","127","282268","0.0-6.0-1.60","RHGA","2","f","rechts","19","","","self","j","120","true"
"null","<div style=""font-size:60px;"">+</div>","null","html-keyboard-response","128","282720","0.0-6.0-0.61","RHGA","2","f","rechts","19","","fixation","","","",""
"671","img/60_210.png","74","image-keyboard-response","129","283391","0.0-6.0-1.61","RHGA","2","f","rechts","19","","","self","j","60","true"
"null","<div style=""font-size:60px;"">+</div>","null","html-keyboard-response","130","283842","0.0-6.0-0.62","RHGA","2","f","rechts","19","","fixation","","","",""
"615","img/L30_180.png","70","image-keyboard-response","131","284458","0.0-6.0-1.62","RHGA","2","f","rechts","19","","","self","f","30","true"
"null","<div style=""font-size:60px;"">+</div>","null","html-keyboard-response","132","284959","0.0-6.0-0.63","RHGA","2","f","rechts","19","","fixation","","","",""
"586","img/90_180.png","74","image-keyboard-response","133","285546","0.0-6.0-1.63","RHGA","2","f","rechts","19","","","self","j","90","true"
"null","<div style=""font-size:60px;"">+</div>","null","html-keyboard-response","134","285848","0.0-6.0-0.64","RHGA","2","f","rechts","19","","fixation","","","",""
"619","img/L120_180.png","70","image-keyboard-response","135","286467","0.0-6.0-1.64","RHGA","2","f","rechts","19","","","self","f","120","true"
"null","<div style=""font-size:60px;"">+</div>","null","html-keyboard-response","136","286918","0.0-6.0-0.65","RHGA","2","f","rechts","19","","fixation","","","",""
"589","img/150_180.png","74","image-keyboard-response","137","287509","0.0-6.0-1.65","RHGA","2","f","rechts","19","","","self","j","150","true"
"null","<div style=""font-size:60px;"">+</div>","null","html-keyboard-response","138","287960","0.0-6.0-0.66","RHGA","2","f","rechts","19","","fixation","","","",""
"735","img/L60_180.png","70","image-keyboard-response","139","288696","0.0-6.0-1.66","RHGA","2","f","rechts","19","","","self","f","60","true"
"null","<div style=""font-size:60px;"">+</div>","null","html-keyboard-response","140","289197","0.0-6.0-0.67","RHGA","2","f","rechts","19","","fixation","","","",""
"780","img/L150_180.png","70","image-keyboard-response","141","289978","0.0-6.0-1.67","RHGA","2","f","rechts","19","","","self","f","150","true"
"null","<div style=""font-size:60px;"">+</div>","null","html-keyboard-response","142","290430","0.0-6.0-0.68","RHGA","2","f","rechts","19","","fixation","","","",""
"653","img/0_120.png","74","image-keyboard-response","143","291085","0.0-6.0-1.68","RHGA","2","f","rechts","19","","","self","j","0","true"
"null","<div style=""font-size:60px;"">+</div>","null","html-keyboard-response","144","291436","0.0-6.0-0.69","RHGA","2","f","rechts","19","","fixation","","","",""
"660","img/120_180.png","74","image-keyboard-response","145","292097","0.0-6.0-1.69","RHGA","2","f","rechts","19","","","self","j","120","true"
"null","<div style=""font-size:60px;"">+</div>","null","html-keyboard-response","146","292499","0.0-6.0-0.70","RHGA","2","f","rechts","19","","fixation","","","",""
"899","img/60_30.png","74","image-keyboard-response","147","293398","0.0-6.0-1.70","RHGA","2","f","rechts","19","","","self","j","60","true"
"null","<div style=""font-size:60px;"">+</div>","null","html-keyboard-response","148","293698","0.0-6.0-0.71","RHGA","2","f","rechts","19","","fixation","","","",""
"1254","img/60_270.png","70","image-keyboard-response","149","294953","0.0-6.0-1.71","RHGA","2","f","rechts","19","","","self","f","60","true"
"null","<div style=""font-size:60px;"">+</div>","null","html-keyboard-response","150","295353","0.0-6.0-0.72","RHGA","2","f","rechts","19","","fixation","","","",""
"627","img/0_90.png","74","image-keyboard-response","151","295981","0.0-6.0-1.72","RHGA","2","f","rechts","19","","","self","j","0","true"
"null","<div style=""font-size:60px;"">+</div>","null","html-keyboard-response","152","296483","0.0-6.0-0.73","RHGA","2","f","rechts","19","","fixation","","","",""
"522","img/0_240.png","70","image-keyboard-response","153","297006","0.0-6.0-1.73","RHGA","2","f","rechts","19","","","self","f","0","true"
"null","<div style=""font-size:60px;"">+</div>","null","html-keyboard-response","154","297506","0.0-6.0-0.74","RHGA","2","f","rechts","19","","fixation","","","",""
"498","img/120_270.png","74","image-keyboard-response","155","298005","0.0-6.0-1.74","RHGA","2","f","rechts","19","","","self","j","120","true"
"null","<div style=""font-size:60px;"">+</div>","null","html-keyboard-response","156","298456","0.0-6.0-0.75","RHGA","2","f","rechts","19","","fixation","","","",""
"675","img/150_120.png","70","image-keyboard-response","157","299131","0.0-6.0-1.75","RHGA","2","f","rechts","19","","","self","f","150","true"
"null","<div style=""font-size:60px;"">+</div>","null","html-keyboard-response","158","299583","0.0-6.0-0.76","RHGA","2","f","rechts","19","","fixation","","","",""
"695","img/90_30.png","74","image-keyboard-response","159","300278","0.0-6.0-1.76","RHGA","2","f","rechts","19","","","self","j","90","true"
"null","<div style=""font-size:60px;"">+</div>","null","html-keyboard-response","160","300579","0.0-6.0-0.77","RHGA","2","f","rechts","19","","fixation","","","",""
"751","img/30_300.png","70","image-keyboard-response","161","301331","0.0-6.0-1.77","RHGA","2","f","rechts","19","","","self","f","30","true"
"null","<div style=""font-size:60px;"">+</div>","null","html-keyboard-response","162","301783","0.0-6.0-0.78","RHGA","2","f","rechts","19","","fixation","","","",""
"911","img/30_240.png","70","image-keyboard-response","163","302694","0.0-6.0-1.78","RHGA","2","f","rechts","19","","","self","f","30","true"
"null","<div style=""font-size:60px;"">+</div>","null","html-keyboard-response","164","303195","0.0-6.0-0.79","RHGA","2","f","rechts","19","","fixation","","","",""
"594","img/90_210.png","74","image-keyboard-response","165","303790","0.0-6.0-1.79","RHGA","2","f","rechts","19","","","self","j","90","true"
"null","<div style=""font-size:60px;"">+</div>","null","html-keyboard-response","166","304291","0.0-6.0-0.80","RHGA","2","f","rechts","19","","fixation","","","",""
"696","img/150_270.png","74","image-keyboard-response","167","304987","0.0-6.0-1.80","RHGA","2","f","rechts","19","","","self","j","150","true"
"null","<div style=""font-size:60px;"">+</div>","null","html-keyboard-response","168","305338","0.0-6.0-0.81","RHGA","2","f","rechts","19","","fixation","","","",""
"751","img/60_150.png","70","image-keyboard-response","169","306089","0.0-6.0-1.81","RHGA","2","f","rechts","19","","","self","f","60","true"
"null","<div style=""font-size:60px;"">+</div>","null","html-keyboard-response","170","306490","0.0-6.0-0.82","RHGA","2","f","rechts","19","","fixation","","","",""
"624","img/0_330.png","70","image-keyboard-response","171","307115","0.0-6.0-1.82","RHGA","2","f","rechts","19","","","self","f","0","true"
"null","<div style=""font-size:60px;"">+</div>","null","html-keyboard-response","172","307415","0.0-6.0-0.83","RHGA","2","f","rechts","19","","fixation","","","",""
"616","img/0_270.png","70","image-keyboard-response","173","308033","0.0-6.0-1.83","RHGA","2","f","rechts","19","","","self","f","0","true"
"null","<div style=""font-size:60px;"">+</div>","null","html-keyboard-response","174","308533","0.0-6.0-0.84","RHGA","2","f","rechts","19","","fixation","","","",""
"1103","img/90_300.png","70","image-keyboard-response","175","309637","0.0-6.0-1.84","RHGA","2","f","rechts","19","","","self","f","90","true"
"null","<div style=""font-size:60px;"">+</div>","null","html-keyboard-response","176","310039","0.0-6.0-0.85","RHGA","2","f","rechts","19","","fixation","","","",""
"587","img/60_180.png","74","image-keyboard-response","177","310626","0.0-6.0-1.85","RHGA","2","f","rechts","19","","","self","j","60","true"
"null","<div style=""font-size:60px;"">+</div>","null","html-keyboard-response","178","311128","0.0-6.0-0.86","RHGA","2","f","rechts","19","","fixation","","","",""
"679","img/30_270.png","70","image-keyboard-response","179","311807","0.0-6.0-1.86","RHGA","2","f","rechts","19","","","self","f","30","true"
"null","<div style=""font-size:60px;"">+</div>","null","html-keyboard-response","180","312209","0.0-6.0-0.87","RHGA","2","f","rechts","19","","fixation","","","",""
"560","img/0_30.png","74","image-keyboard-response","181","312769","0.0-6.0-1.87","RHGA","2","f","rechts","19","","","self","j","0","true"
"null","<div style=""font-size:60px;"">+</div>","null","html-keyboard-response","182","313171","0.0-6.0-0.88","RHGA","2","f","rechts","19","","fixation","","","",""
"635","img/L90_180.png","70","image-keyboard-response","183","313807","0.0-6.0-1.88","RHGA","2","f","rechts","19","","","self","f","90","true"
"null","<div style=""font-size:60px;"">+</div>","null","html-keyboard-response","184","314307","0.0-6.0-0.89","RHGA","2","f","rechts","19","","fixation","","","",""
"531","img/30_90.png","74","image-keyboard-response","185","314840","0.0-6.0-1.89","RHGA","2","f","rechts","19","","","self","j","30","true"
"null","<div style=""font-size:60px;"">+</div>","null","html-keyboard-response","186","315291","0.0-6.0-0.90","RHGA","2","f","rechts","19","","fixation","","","",""
"848","img/30_60.png","74","image-keyboard-response","187","316140","0.0-6.0-1.90","RHGA","2","f","rechts","19","","","self","j","30","true"
"null","<div style=""font-size:60px;"">+</div>","null","html-keyboard-response","188","316590","0.0-6.0-0.91","RHGA","2","f","rechts","19","","fixation","","","",""
"704","img/120_150.png","70","image-keyboard-response","189","317295","0.0-6.0-1.91","RHGA","2","f","rechts","19","","","self","f","120","true"
"null","<div style=""font-size:60px;"">+</div>","null","html-keyboard-response","190","317796","0.0-6.0-0.92","RHGA","2","f","rechts","19","","fixation","","","",""
"577","img/90_120.png","70","image-keyboard-response","191","318373","0.0-6.0-1.92","RHGA","2","f","rechts","19","","","self","f","90","true"
"null","<div style=""font-size:60px;"">+</div>","null","html-keyboard-response","192","318825","0.0-6.0-0.93","RHGA","2","f","rechts","19","","fixation","","","",""
"593","img/30_180.png","74","image-keyboard-response","193","319420","0.0-6.0-1.93","RHGA","2","f","rechts","19","","","self","j","30","true"
"null","<div style=""font-size:60px;"">+</div>","null","html-keyboard-response","194","319820","0.0-6.0-0.94","RHGA","2","f","rechts","19","","fixation","","","",""
"733","img/120_330.png","74","image-keyboard-response","195","320554","0.0-6.0-1.94","RHGA","2","f","rechts","19","","","self","f","120","false"
"null","<div style=""font-size:60px;"">+</div>","null","html-keyboard-response","196","320906","0.0-6.0-0.95","RHGA","2","f","rechts","19","","fixation","","","",""
"934","img/120_210.png","74","image-keyboard-response","197","321841","0.0-6.0-1.95","RHGA","2","f","rechts","19","","","self","j","120","true"
"null","<div style=""font-size:60px;"">+</div>","null","html-keyboard-response","198","322192","0.0-6.0-0.96","RHGA","2","f","rechts","19","","fixation","","","",""
"889","img/60_90.png","70","image-keyboard-response","199","323082","0.0-6.0-1.96","RHGA","2","f","rechts","19","","","self","j","60","false"
"null","<div style=""font-size:60px;"">+</div>","null","html-keyboard-response","200","323433","0.0-6.0-0.97","RHGA","2","f","rechts","19","","fixation","","","",""
"1144","img/60_330.png","70","image-keyboard-response","201","324578","0.0-6.0-1.97","RHGA","2","f","rechts","19","","","self","f","60","true"
"null","<div style=""font-size:60px;"">+</div>","null","html-keyboard-response","202","324979","0.0-6.0-0.98","RHGA","2","f","rechts","19","","fixation","","","",""
"672","img/0_60.png","74","image-keyboard-response","203","325651","0.0-6.0-1.98","RHGA","2","f","rechts","19","","","self","j","0","true"
"null","<div style=""font-size:60px;"">+</div>","null","html-keyboard-response","204","326153","0.0-6.0-0.99","RHGA","2","f","rechts","19","","fixation","","","",""
"731","img/150_90.png","70","image-keyboard-response","205","326885","0.0-6.0-1.99","RHGA","2","f","rechts","19","","","self","f","150","true"
"null","<div style=""font-size:60px;"">+</div>","null","html-keyboard-response","206","327337","0.0-6.0-0.100","RHGA","2","f","rechts","19","","fixation","","","",""
"680","img/120_90.png","70","image-keyboard-response","207","328017","0.0-6.0-1.100","RHGA","2","f","rechts","19","","","self","f","120","true"
"null","<div style=""font-size:60px;"">+</div>","null","html-keyboard-response","208","328469","0.0-6.0-0.101","RHGA","2","f","rechts","19","","fixation","","","",""
"608","img/30_120.png","74","image-keyboard-response","209","329077","0.0-6.0-1.101","RHGA","2","f","rechts","19","","","self","j","30","true"
"null","<div style=""font-size:60px;"">+</div>","null","html-keyboard-response","210","329529","0.0-6.0-0.102","RHGA","2","f","rechts","19","","fixation","","","",""
"951","img/90_60.png","74","image-keyboard-response","211","330480","0.0-6.0-1.102","RHGA","2","f","rechts","19","","","self","j","90","true"
"null","<div style=""font-size:60px;"">+</div>","null","html-keyboard-response","212","330781","0.0-6.0-0.103","RHGA","2","f","rechts","19","","fixation","","","",""
"690","img/0_150.png","74","image-keyboard-response","213","331472","0.0-6.0-1.103","RHGA","2","f","rechts","19","","","self","j","0","true"
"null","<div style=""font-size:60px;"">+</div>","null","html-keyboard-response","214","331773","0.0-6.0-0.104","RHGA","2","f","rechts","19","","fixation","","","",""
"727","img/60_180.png","74","image-keyboard-response","215","332500","0.0-6.0-1.104","RHGA","2","f","rechts","19","","","self","j","60","true"
"null","<div style=""font-size:60px;"">+</div>","null","html-keyboard-response","216","333001","0.0-6.0-0.105","RHGA","2","f","rechts","19","","fixation","","","",""
"604","img/120_210.png","74","image-keyboard-response","217","333605","0.0-6.0-1.105","RHGA","2","f","rechts","19","","","self","j","120","true"
"null","<div style=""font-size:60px;"">+</div>","null","html-keyboard-response","218","334056","0.0-6.0-0.106","RHGA","2","f","rechts","19","","fixation","","","",""
"633","img/0_270.png","70","image-keyboard-response","219","334689","0.0-6.0-1.106","RHGA","2","f","rechts","19","","","self","f","0","true"
"null","<div style=""font-size:60px;"">+</div>","null","html-keyboard-response","220","335139","0.0-6.0-0.107","RHGA","2","f","rechts","19","","fixation","","","",""
"547","img/150_180.png","74","image-keyboard-response","221","335688","0.0-6.0-1.107","RHGA","2","f","rechts","19","","","self","j","150","true"
"null","<div style=""font-size:60px;"">+</div>","null","html-keyboard-response","222","336038","0.0-6.0-0.108","RHGA","2","f","rechts","19","","fixation","","","",""
"651","img/0_210.png","70","image-keyboard-response","223","336691","0.0-6.0-1.108","RHGA","2","f","rechts","19","","","self","f","0","true"
"null","<div style=""font-size:60px;"">+</div>","null","html-keyboard-response","224","337191","0.0-6.0-0.109","RHGA","2","f","rechts","19","","fixation","","","",""
"703","img/60_270.png","70","image-keyboard-response","225","337895","0.0-6.0-1.109","RHGA","2","f","rechts","19","","","self","f","60","true"
"null","<div style=""font-size:60px;"">+</div>","null","html-keyboard-response","226","338296","0.0-6.0-0.110","RHGA","2","f","rechts","19","","fixation","","","",""
"790","img/150_90.png","70","image-keyboard-response","227","339087","0.0-6.0-1.110","RHGA","2","f","rechts","19","","","self","f","150","true"
"null","<div style=""font-size:60px;"">+</div>","null","html-keyboard-response","228","339388","0.0-6.0-0.111","RHGA","2","f","rechts","19","","fixation","","","",""
"631","img/30_180.png","74","image-keyboard-response","229","340020","0.0-6.0-1.111","RHGA","2","f","rechts","19","","","self","j","30","true"
"null","<div style=""font-size:60px;"">+</div>","null","html-keyboard-response","230","340321","0.0-6.0-0.112","RHGA","2","f","rechts","19","","fixation","","","",""
"991","img/90_180.png","74","image-keyboard-response","231","341313","0.0-6.0-1.112","RHGA","2","f","rechts","19","","","self","j","90","true"
"null","<div style=""font-size:60px;"">+</div>","null","html-keyboard-response","232","341764","0.0-6.0-0.113","RHGA","2","f","rechts","19","","fixation","","","",""
"590","img/L60_180.png","70","image-keyboard-response","233","342355","0.0-6.0-1.113","RHGA","2","f","rechts","19","","","self","f","60","true"
"null","<div style=""font-size:60px;"">+</div>","null","html-keyboard-response","234","342806","0.0-6.0-0.114","RHGA","2","f","rechts","19","","fixation","","","",""
"608","img/0_150.png","74","image-keyboard-response","235","343415","0.0-6.0-1.114","RHGA","2","f","rechts","19","","","self","j","0","true"
"null","<div style=""font-size:60px;"">+</div>","null","html-keyboard-response","236","343916","0.0-6.0-0.115","RHGA","2","f","rechts","19","","fixation","","","",""
"547","img/0_60.png","74","image-keyboard-response","237","344463","0.0-6.0-1.115","RHGA","2","f","rechts","19","","","self","j","0","true"
"null","<div style=""font-size:60px;"">+</div>","null","html-keyboard-response","238","344763","0.0-6.0-0.116","RHGA","2","f","rechts","19","","fixation","","","",""
"683","img/0_330.png","70","image-keyboard-response","239","345448","0.0-6.0-1.116","RHGA","2","f","rechts","19","","","self","f","0","true"
"null","<div style=""font-size:60px;"">+</div>","null","html-keyboard-response","240","345849","0.0-6.0-0.117","RHGA","2","f","rechts","19","","fixation","","","",""
"810","img/30_270.png","70","image-keyboard-response","241","346660","0.0-6.0-1.117","RHGA","2","f","rechts","19","","","self","f","30","true"
"null","<div style=""font-size:60px;"">+</div>","null","html-keyboard-response","242","347162","0.0-6.0-0.118","RHGA","2","f","rechts","19","","fixation","","","",""
"823","img/120_150.png","70","image-keyboard-response","243","347985","0.0-6.0-1.118","RHGA","2","f","rechts","19","","","self","f","120","true"
"null","<div style=""font-size:60px;"">+</div>","null","html-keyboard-response","244","348336","0.0-6.0-0.119","RHGA","2","f","rechts","19","","fixation","","","",""
"952","img/60_330.png","70","image-keyboard-response","245","349289","0.0-6.0-1.119","RHGA","2","f","rechts","19","","","self","f","60","true"
"null","<div style=""font-size:60px;"">+</div>","null","html-keyboard-response","246","349590","0.0-6.0-0.120","RHGA","2","f","rechts","19","","fixation","","","",""
"713","img/0_240.png","70","image-keyboard-response","247","350304","0.0-6.0-1.120","RHGA","2","f","rechts","19","","","self","f","0","true"
"null","<div style=""font-size:60px;"">+</div>","null","html-keyboard-response","248","350604","0.0-6.0-0.121","RHGA","2","f","rechts","19","","fixation","","","",""
"869","img/120_90.png","70","image-keyboard-response","249","351474","0.0-6.0-1.121","RHGA","2","f","rechts","19","","","self","f","120","true"
"null","<div style=""font-size:60px;"">+</div>","null","html-keyboard-response","250","351826","0.0-6.0-0.122","RHGA","2","f","rechts","19","","fixation","","","",""
"911","img/90_120.png","70","image-keyboard-response","251","352738","0.0-6.0-1.122","RHGA","2","f","rechts","19","","","self","f","90","true"
"null","<div style=""font-size:60px;"">+</div>","null","html-keyboard-response","252","353138","0.0-6.0-0.123","RHGA","2","f","rechts","19","","fixation","","","",""
"918","img/120_30.png","74","image-keyboard-response","253","354056","0.0-6.0-1.123","RHGA","2","f","rechts","19","","","self","j","120","true"
"null","<div style=""font-size:60px;"">+</div>","null","html-keyboard-response","254","354358","0.0-6.0-0.124","RHGA","2","f","rechts","19","","fixation","","","",""
"1002","img/30_60.png","74","image-keyboard-response","255","355361","0.0-6.0-1.124","RHGA","2","f","rechts","19","","","self","j","30","true"
"null","<div style=""font-size:60px;"">+</div>","null","html-keyboard-response","256","355712","0.0-6.0-0.125","RHGA","2","f","rechts","19","","fixation","","","",""
"785","img/90_60.png","74","image-keyboard-response","257","356498","0.0-6.0-1.125","RHGA","2","f","rechts","19","","","self","j","90","true"
"null","<div style=""font-size:60px;"">+</div>","null","html-keyboard-response","258","356849","0.0-6.0-0.126","RHGA","2","f","rechts","19","","fixation","","","",""
"720","img/L120_180.png","70","image-keyboard-response","259","357570","0.0-6.0-1.126","RHGA","2","f","rechts","19","","","self","f","120","true"
"null","<div style=""font-size:60px;"">+</div>","null","html-keyboard-response","260","357921","0.0-6.0-0.127","RHGA","2","f","rechts","19","","fixation","","","",""
"589","img/L150_180.png","70","image-keyboard-response","261","358511","0.0-6.0-1.127","RHGA","2","f","rechts","19","","","self","f","150","true"
"null","<div style=""font-size:60px;"">+</div>","null","html-keyboard-response","262","359013","0.0-6.0-0.128","RHGA","2","f","rechts","19","","fixation","","","",""
"562","img/0_30.png","74","image-keyboard-response","263","359576","0.0-6.0-1.128","RHGA","2","f","rechts","19","","","self","j","0","true"
"null","<div style=""font-size:60px;"">+</div>","null","html-keyboard-response","264","359927","0.0-6.0-0.129","RHGA","2","f","rechts","19","","fixation","","","",""
"760","img/60_210.png","74","image-keyboard-response","265","360687","0.0-6.0-1.129","RHGA","2","f","rechts","19","","","self","j","60","true"
"null","<div style=""font-size:60px;"">+</div>","null","html-keyboard-response","266","361138","0.0-6.0-0.130","RHGA","2","f","rechts","19","","fixation","","","",""
"912","img/150_300.png","74","image-keyboard-response","267","362051","0.0-6.0-1.130","RHGA","2","f","rechts","19","","","self","j","150","true"
"null","<div style=""font-size:60px;"">+</div>","null","html-keyboard-response","268","362502","0.0-6.0-0.131","RHGA","2","f","rechts","19","","fixation","","","",""
"634","img/90_210.png","74","image-keyboard-response","269","363137","0.0-6.0-1.131","RHGA","2","f","rechts","19","","","self","j","90","true"
"null","<div style=""font-size:60px;"">+</div>","null","html-keyboard-response","270","363538","0.0-6.0-0.132","RHGA","2","f","rechts","19","","fixation","","","",""
"715","img/60_30.png","70","image-keyboard-response","271","364255","0.0-6.0-1.132","RHGA","2","f","rechts","19","","","self","j","60","false"
"null","<div style=""font-size:60px;"">+</div>","null","html-keyboard-response","272","364656","0.0-6.0-0.133","RHGA","2","f","rechts","19","","fixation","","","",""
"531","img/0_90.png","74","image-keyboard-response","273","365189","0.0-6.0-1.133","RHGA","2","f","rechts","19","","","self","j","0","true"
"null","<div style=""font-size:60px;"">+</div>","null","html-keyboard-response","274","365539","0.0-6.0-0.134","RHGA","2","f","rechts","19","","fixation","","","",""
"609","img/L90_180.png","70","image-keyboard-response","275","366149","0.0-6.0-1.134","RHGA","2","f","rechts","19","","","self","f","90","true"
"null","<div style=""font-size:60px;"">+</div>","null","html-keyboard-response","276","366601","0.0-6.0-0.135","RHGA","2","f","rechts","19","","fixation","","","",""
"770","img/90_30.png","74","image-keyboard-response","277","367372","0.0-6.0-1.135","RHGA","2","f","rechts","19","","","self","j","90","true"
"null","<div style=""font-size:60px;"">+</div>","null","html-keyboard-response","278","367873","0.0-6.0-0.136","RHGA","2","f","rechts","19","","fixation","","","",""
"729","img/150_60.png","70","image-keyboard-response","279","368603","0.0-6.0-1.136","RHGA","2","f","rechts","19","","","self","f","150","true"
"null","<div style=""font-size:60px;"">+</div>","null","html-keyboard-response","280","368904","0.0-6.0-0.137","RHGA","2","f","rechts","19","","fixation","","","",""
"805","img/60_150.png","70","image-keyboard-response","281","369710","0.0-6.0-1.137","RHGA","2","f","rechts","19","","","self","f","60","true"
"null","<div style=""font-size:60px;"">+</div>","null","html-keyboard-response","282","370212","0.0-6.0-0.138","RHGA","2","f","rechts","19","","fixation","","","",""
"892","img/60_90.png","74","image-keyboard-response","283","371104","0.0-6.0-1.138","RHGA","2","f","rechts","19","","","self","j","60","true"
"null","<div style=""font-size:60px;"">+</div>","null","html-keyboard-response","284","371405","0.0-6.0-0.139","RHGA","2","f","rechts","19","","fixation","","","",""
"678","img/0_120.png","74","image-keyboard-response","285","372085","0.0-6.0-1.139","RHGA","2","f","rechts","19","","","self","j","0","true"
"null","<div style=""font-size:60px;"">+</div>","null","html-keyboard-response","286","372485","0.0-6.0-0.140","RHGA","2","f","rechts","19","","fixation","","","",""
"576","img/L30_180.png","70","image-keyboard-response","287","373062","0.0-6.0-1.140","RHGA","2","f","rechts","19","","","self","f","30","true"
"null","<div style=""font-size:60px;"">+</div>","null","html-keyboard-response","288","373513","0.0-6.0-0.141","RHGA","2","f","rechts","19","","fixation","","","",""
"750","img/30_240.png","70","image-keyboard-response","289","374264","0.0-6.0-1.141","RHGA","2","f","rechts","19","","","self","f","30","true"
"null","<div style=""font-size:60px;"">+</div>","null","html-keyboard-response","290","374715","0.0-6.0-0.142","RHGA","2","f","rechts","19","","fixation","","","",""
"948","img/90_300.png","70","image-keyboard-response","291","375664","0.0-6.0-1.142","RHGA","2","f","rechts","19","","","self","f","90","true"
"null","<div style=""font-size:60px;"">+</div>","null","html-keyboard-response","292","376166","0.0-6.0-0.143","RHGA","2","f","rechts","19","","fixation","","","",""
"630","img/0_300.png","70","image-keyboard-response","293","376796","0.0-6.0-1.143","RHGA","2","f","rechts","19","","","self","f","0","true"
"null","<div style=""font-size:60px;"">+</div>","null","html-keyboard-response","294","377297","0.0-6.0-0.144","RHGA","2","f","rechts","19","","fixation","","","",""
"553","img/90_150.png","70","image-keyboard-response","295","377852","0.0-6.0-1.144","RHGA","2","f","rechts","19","","","self","f","90","true"
"null","<div style=""font-size:60px;"">+</div>","null","html-keyboard-response","296","378303","0.0-6.0-0.145","RHGA","2","f","rechts","19","","fixation","","","",""
"876","img/30_90.png","74","image-keyboard-response","297","379180","0.0-6.0-1.145","RHGA","2","f","rechts","19","","","self","j","30","true"
"null","<div style=""font-size:60px;"">+</div>","null","html-keyboard-response","298","379581","0.0-6.0-0.146","RHGA","2","f","rechts","19","","fixation","","","",""
"781","img/150_240.png","74","image-keyboard-response","299","380363","0.0-6.0-1.146","RHGA","2","f","rechts","19","","","self","j","150","true"
"null","<div style=""font-size:60px;"">+</div>","null","html-keyboard-response","300","380764","0.0-6.0-0.147","RHGA","2","f","rechts","19","","fixation","","","",""
"855","img/90_330.png","70","image-keyboard-response","301","381620","0.0-6.0-1.147","RHGA","2","f","rechts","19","","","self","f","90","true"
"null","<div style=""font-size:60px;"">+</div>","null","html-keyboard-response","302","382070","0.0-6.0-0.148","RHGA","2","f","rechts","19","","fixation","","","",""
"789","img/150_270.png","74","image-keyboard-response","303","382860","0.0-6.0-1.148","RHGA","2","f","rechts","19","","","self","j","150","true"
"null","<div style=""font-size:60px;"">+</div>","null","html-keyboard-response","304","383262","0.0-6.0-0.149","RHGA","2","f","rechts","19","","fixation","","","",""
"681","img/30_300.png","70","image-keyboard-response","305","383943","0.0-6.0-1.149","RHGA","2","f","rechts","19","","","self","f","30","true"
"null","<div style=""font-size:60px;"">+</div>","null","html-keyboard-response","306","384393","0.0-6.0-0.150","RHGA","2","f","rechts","19","","fixation","","","",""
"644","img/120_270.png","74","image-keyboard-response","307","385038","0.0-6.0-1.150","RHGA","2","f","rechts","19","","","self","j","120","true"
"null","<div style=""font-size:60px;"">+</div>","null","html-keyboard-response","308","385489","0.0-6.0-0.151","RHGA","2","f","rechts","19","","fixation","","","",""
"674","img/150_120.png","70","image-keyboard-response","309","386165","0.0-6.0-1.151","RHGA","2","f","rechts","19","","","self","f","150","true"
"null","<div style=""font-size:60px;"">+</div>","null","html-keyboard-response","310","386616","0.0-6.0-0.152","RHGA","2","f","rechts","19","","fixation","","","",""
"1242","img/30_120.png","74","image-keyboard-response","311","387859","0.0-6.0-1.152","RHGA","2","f","rechts","19","","","self","j","30","true"
"null","<div style=""font-size:60px;"">+</div>","null","html-keyboard-response","312","388210","0.0-6.0-0.153","RHGA","2","f","rechts","19","","fixation","","","",""
"966","img/120_330.png","74","image-keyboard-response","313","389177","0.0-6.0-1.153","RHGA","2","f","rechts","19","","","self","f","120","false"
"null","<div style=""font-size:60px;"">+</div>","null","html-keyboard-response","314","389577","0.0-6.0-0.154","RHGA","2","f","rechts","19","","fixation","","","",""
"778","img/90_240.png","70","image-keyboard-response","315","390357","0.0-6.0-1.154","RHGA","2","f","rechts","19","","","self","j","90","false"
"null","<div style=""font-size:60px;"">+</div>","null","html-keyboard-response","316","390758","0.0-6.0-0.155","RHGA","2","f","rechts","19","","fixation","","","",""
"658","img/120_180.png","74","image-keyboard-response","317","391417","0.0-6.0-1.155","RHGA","2","f","rechts","19","","","self","j","120","true"
"null","<div style=""font-size:60px;"">+</div>","null","html-keyboard-response","318","391917","0.0-6.0-0.156","RHGA","2","f","rechts","19","","fixation","","","",""
"599","img/120_210.png","74","image-keyboard-response","319","392517","0.0-6.0-1.156","RHGA","2","f","rechts","19","","","self","j","120","true"
"null","<div style=""font-size:60px;"">+</div>","null","html-keyboard-response","320","392868","0.0-6.0-0.157","RHGA","2","f","rechts","19","","fixation","","","",""
"1077","img/90_330.png","70","image-keyboard-response","321","393946","0.0-6.0-1.157","RHGA","2","f","rechts","19","","","self","f","90","true"
"null","<div style=""font-size:60px;"">+</div>","null","html-keyboard-response","322","394247","0.0-6.0-0.158","RHGA","2","f","rechts","19","","fixation","","","",""
"1169","img/90_30.png","74","image-keyboard-response","323","395418","0.0-6.0-1.158","RHGA","2","f","rechts","19","","","self","j","90","true"
"null","<div style=""font-size:60px;"">+</div>","null","html-keyboard-response","324","395918","0.0-6.0-0.159","RHGA","2","f","rechts","19","","fixation","","","",""
"828","img/L90_180.png","70","image-keyboard-response","325","396748","0.0-6.0-1.159","RHGA","2","f","rechts","19","","","self","f","90","true"
"null","<div style=""font-size:60px;"">+</div>","null","html-keyboard-response","326","397148","0.0-6.0-0.160","RHGA","2","f","rechts","19","","fixation","","","",""
"662","img/120_180.png","74","image-keyboard-response","327","397812","0.0-6.0-1.160","RHGA","2","f","rechts","19","","","self","j","120","true"
"null","<div style=""font-size:60px;"">+</div>","null","html-keyboard-response","328","398213","0.0-6.0-0.161","RHGA","2","f","rechts","19","","fixation","","","",""
"709","img/150_240.png","74","image-keyboard-response","329","398923","0.0-6.0-1.161","RHGA","2","f","rechts","19","","","self","j","150","true"
"null","<div style=""font-size:60px;"">+</div>","null","html-keyboard-response","330","399224","0.0-6.0-0.162","RHGA","2","f","rechts","19","","fixation","","","",""
"712","img/150_270.png","74","image-keyboard-response","331","399936","0.0-6.0-1.162","RHGA","2","f","rechts","19","","","self","j","150","true"
"null","<div style=""font-size:60px;"">+</div>","null","html-keyboard-response","332","400436","0.0-6.0-0.163","RHGA","2","f","rechts","19","","fixation","","","",""
"866","img/120_270.png","74","image-keyboard-response","333","401303","0.0-6.0-1.163","RHGA","2","f","rechts","19","","","self","j","120","true"
"null","<div style=""font-size:60px;"">+</div>","null","html-keyboard-response","334","401755","0.0-6.0-0.164","RHGA","2","f","rechts","19","","fixation","","","",""
"856","img/90_60.png","70","image-keyboard-response","335","402612","0.0-6.0-1.164","RHGA","2","f","rechts","19","","","self","j","90","false"
"null","<div style=""font-size:60px;"">+</div>","null","html-keyboard-response","336","403013","0.0-6.0-0.165","RHGA","2","f","rechts","19","","fixation","","","",""
"985","img/150_90.png","70","image-keyboard-response","337","404000","0.0-6.0-1.165","RHGA","2","f","rechts","19","","","self","f","150","true"
"null","<div style=""font-size:60px;"">+</div>","null","html-keyboard-response","338","404351","0.0-6.0-0.166","RHGA","2","f","rechts","19","","fixation","","","",""
"1610","img/120_330.png","74","image-keyboard-response","339","405963","0.0-6.0-1.166","RHGA","2","f","rechts","19","","","self","f","120","false"
"null","<div style=""font-size:60px;"">+</div>","null","html-keyboard-response","340","406314","0.0-6.0-0.167","RHGA","2","f","rechts","19","","fixation","","","",""
"806","img/L150_180.png","70","image-keyboard-response","341","407121","0.0-6.0-1.167","RHGA","2","f","rechts","19","","","self","f","150","true"
"null","<div style=""font-size:60px;"">+</div>","null","html-keyboard-response","342","407572","0.0-6.0-0.168","RHGA","2","f","rechts","19","","fixation","","","",""
"862","img/60_90.png","70","image-keyboard-response","343","408434","0.0-6.0-1.168","RHGA","2","f","rechts","19","","","self","j","60","false"
"null","<div style=""font-size:60px;"">+</div>","null","html-keyboard-response","344","408735","0.0-6.0-0.169","RHGA","2","f","rechts","19","","fixation","","","",""
"1076","img/L120_180.png","70","image-keyboard-response","345","409811","0.0-6.0-1.169","RHGA","2","f","rechts","19","","","self","f","120","true"
"null","<div style=""font-size:60px;"">+</div>","null","html-keyboard-response","346","410112","0.0-6.0-0.170","RHGA","2","f","rechts","19","","fixation","","","",""
"1066","img/60_270.png","70","image-keyboard-response","347","411178","0.0-6.0-1.170","RHGA","2","f","rechts","19","","","self","f","60","true"
"null","<div style=""font-size:60px;"">+</div>","null","html-keyboard-response","348","411580","0.0-6.0-0.171","RHGA","2","f","rechts","19","","fixation","","","",""
"681","img/0_120.png","74","image-keyboard-response","349","412262","0.0-6.0-1.171","RHGA","2","f","rechts","19","","","self","j","0","true"
"null","<div style=""font-size:60px;"">+</div>","null","html-keyboard-response","350","412663","0.0-6.0-0.172","RHGA","2","f","rechts","19","","fixation","","","",""
"785","img/150_180.png","74","image-keyboard-response","351","413449","0.0-6.0-1.172","RHGA","2","f","rechts","19","","","self","j","150","true"
"null","<div style=""font-size:60px;"">+</div>","null","html-keyboard-response","352","413850","0.0-6.0-0.173","RHGA","2","f","rechts","19","","fixation","","","",""
"780","img/120_150.png","70","image-keyboard-response","353","414631","0.0-6.0-1.173","RHGA","2","f","rechts","19","","","self","f","120","true"
"null","<div style=""font-size:60px;"">+</div>","null","html-keyboard-response","354","415033","0.0-6.0-0.174","RHGA","2","f","rechts","19","","fixation","","","",""
"688","img/0_60.png","74","image-keyboard-response","355","415721","0.0-6.0-1.174","RHGA","2","f","rechts","19","","","self","j","0","true"
"null","<div style=""font-size:60px;"">+</div>","null","html-keyboard-response","356","416172","0.0-6.0-0.175","RHGA","2","f","rechts","19","","fixation","","","",""
"862","img/150_300.png","74","image-keyboard-response","357","417035","0.0-6.0-1.175","RHGA","2","f","rechts","19","","","self","j","150","true"
"null","<div style=""font-size:60px;"">+</div>","null","html-keyboard-response","358","417487","0.0-6.0-0.176","RHGA","2","f","rechts","19","","fixation","","","",""
"935","img/30_90.png","74","image-keyboard-response","359","418423","0.0-6.0-1.176","RHGA","2","f","rechts","19","","","self","j","30","true"
"null","<div style=""font-size:60px;"">+</div>","null","html-keyboard-response","360","418825","0.0-6.0-0.177","RHGA","2","f","rechts","19","","fixation","","","",""
"940","img/90_150.png","70","image-keyboard-response","361","419765","0.0-6.0-1.177","RHGA","2","f","rechts","19","","","self","f","90","true"
"null","<div style=""font-size:60px;"">+</div>","null","html-keyboard-response","362","420216","0.0-6.0-0.178","RHGA","2","f","rechts","19","","fixation","","","",""
"728","img/60_330.png","70","image-keyboard-response","363","420945","0.0-6.0-1.178","RHGA","2","f","rechts","19","","","self","f","60","true"
"null","<div style=""font-size:60px;"">+</div>","null","html-keyboard-response","364","421397","0.0-6.0-0.179","RHGA","2","f","rechts","19","","fixation","","","",""
"661","img/30_300.png","70","image-keyboard-response","365","422058","0.0-6.0-1.179","RHGA","2","f","rechts","19","","","self","f","30","true"
"null","<div style=""font-size:60px;"">+</div>","null","html-keyboard-response","366","422359","0.0-6.0-0.180","RHGA","2","f","rechts","19","","fixation","","","",""
"811","img/60_210.png","74","image-keyboard-response","367","423172","0.0-6.0-1.180","RHGA","2","f","rechts","19","","","self","j","60","true"
"null","<div style=""font-size:60px;"">+</div>","null","html-keyboard-response","368","423672","0.0-6.0-0.181","RHGA","2","f","rechts","19","","fixation","","","",""
"656","img/0_240.png","70","image-keyboard-response","369","424329","0.0-6.0-1.181","RHGA","2","f","rechts","19","","","self","f","0","true"
"null","<div style=""font-size:60px;"">+</div>","null","html-keyboard-response","370","424680","0.0-6.0-0.182","RHGA","2","f","rechts","19","","fixation","","","",""
"936","img/120_90.png","70","image-keyboard-response","371","425617","0.0-6.0-1.182","RHGA","2","f","rechts","19","","","self","f","120","true"
"null","<div style=""font-size:60px;"">+</div>","null","html-keyboard-response","372","426018","0.0-6.0-0.183","RHGA","2","f","rechts","19","","fixation","","","",""
"783","img/60_180.png","74","image-keyboard-response","373","426801","0.0-6.0-1.183","RHGA","2","f","rechts","19","","","self","j","60","true"
"null","<div style=""font-size:60px;"">+</div>","null","html-keyboard-response","374","427203","0.0-6.0-0.184","RHGA","2","f","rechts","19","","fixation","","","",""
"819","img/60_30.png","70","image-keyboard-response","375","428023","0.0-6.0-1.184","RHGA","2","f","rechts","19","","","self","j","60","false"
"null","<div style=""font-size:60px;"">+</div>","null","html-keyboard-response","376","428474","0.0-6.0-0.185","RHGA","2","f","rechts","19","","fixation","","","",""
"954","img/120_30.png","70","image-keyboard-response","377","429429","0.0-6.0-1.185","RHGA","2","f","rechts","19","","","self","j","120","false"
"null","<div style=""font-size:60px;"">+</div>","null","html-keyboard-response","378","429731","0.0-6.0-0.186","RHGA","2","f","rechts","19","","fixation","","","",""
"686","img/0_150.png","74","image-keyboard-response","379","430417","0.0-6.0-1.186","RHGA","2","f","rechts","19","","","self","j","0","true"
"null","<div style=""font-size:60px;"">+</div>","null","html-keyboard-response","380","430819","0.0-6.0-0.187","RHGA","2","f","rechts","19","","fixation","","","",""
"750","img/30_120.png","70","image-keyboard-response","381","431570","0.0-6.0-1.187","RHGA","2","f","rechts","19","","","self","j","30","false"
"null","<div style=""font-size:60px;"">+</div>","null","html-keyboard-response","382","431870","0.0-6.0-0.188","RHGA","2","f","rechts","19","","fixation","","","",""
"725","img/90_210.png","74","image-keyboard-response","383","432596","0.0-6.0-1.188","RHGA","2","f","rechts","19","","","self","j","90","true"
"null","<div style=""font-size:60px;"">+</div>","null","html-keyboard-response","384","433097","0.0-6.0-0.189","RHGA","2","f","rechts","19","","fixation","","","",""
"770","img/L60_180.png","70","image-keyboard-response","385","433867","0.0-6.0-1.189","RHGA","2","f","rechts","19","","","self","f","60","true"
"null","<div style=""font-size:60px;"">+</div>","null","html-keyboard-response","386","434368","0.0-6.0-0.190","RHGA","2","f","rechts","19","","fixation","","","",""
"605","img/0_210.png","70","image-keyboard-response","387","434974","0.0-6.0-1.190","RHGA","2","f","rechts","19","","","self","f","0","true"
"null","<div style=""font-size:60px;"">+</div>","null","html-keyboard-response","388","435475","0.0-6.0-0.191","RHGA","2","f","rechts","19","","fixation","","","",""
"529","img/0_90.png","74","image-keyboard-response","389","436006","0.0-6.0-1.191","RHGA","2","f","rechts","19","","","self","j","0","true"
"null","<div style=""font-size:60px;"">+</div>","null","html-keyboard-response","390","436407","0.0-6.0-0.192","RHGA","2","f","rechts","19","","fixation","","","",""
"1213","img/150_60.png","70","image-keyboard-response","391","437620","0.0-6.0-1.192","RHGA","2","f","rechts","19","","","self","f","150","true"
"null","<div style=""font-size:60px;"">+</div>","null","html-keyboard-response","392","438021","0.0-6.0-0.193","RHGA","2","f","rechts","19","","fixation","","","",""
"934","img/30_180.png","74","image-keyboard-response","393","438956","0.0-6.0-1.193","RHGA","2","f","rechts","19","","","self","j","30","true"
"null","<div style=""font-size:60px;"">+</div>","null","html-keyboard-response","394","439307","0.0-6.0-0.194","RHGA","2","f","rechts","19","","fixation","","","",""
"1686","img/30_270.png","70","image-keyboard-response","395","440994","0.0-6.0-1.194","RHGA","2","f","rechts","19","","","self","f","30","true"
"null","<div style=""font-size:60px;"">+</div>","null","html-keyboard-response","396","441445","0.0-6.0-0.195","RHGA","2","f","rechts","19","","fixation","","","",""
"1073","img/30_240.png","70","image-keyboard-response","397","442519","0.0-6.0-1.195","RHGA","2","f","rechts","19","","","self","f","30","true"
"null","<div style=""font-size:60px;"">+</div>","null","html-keyboard-response","398","442870","0.0-6.0-0.196","RHGA","2","f","rechts","19","","fixation","","","",""
"627","img/0_30.png","74","image-keyboard-response","399","443498","0.0-6.0-1.196","RHGA","2","f","rechts","19","","","self","j","0","true"
"null","<div style=""font-size:60px;"">+</div>","null","html-keyboard-response","400","444000","0.0-6.0-0.197","RHGA","2","f","rechts","19","","fixation","","","",""
"991","img/90_240.png","70","image-keyboard-response","401","444991","0.0-6.0-1.197","RHGA","2","f","rechts","19","","","self","j","90","false"
"null","<div style=""font-size:60px;"">+</div>","null","html-keyboard-response","402","445392","0.0-6.0-0.198","RHGA","2","f","rechts","19","","fixation","","","",""
"889","img/30_60.png","74","image-keyboard-response","403","446282","0.0-6.0-1.198","RHGA","2","f","rechts","19","","","self","j","30","true"
"null","<div style=""font-size:60px;"">+</div>","null","html-keyboard-response","404","446583","0.0-6.0-0.199","RHGA","2","f","rechts","19","","fixation","","","",""
"670","img/0_330.png","70","image-keyboard-response","405","447254","0.0-6.0-1.199","RHGA","2","f","rechts","19","","","self","f","0","true"
"null","<div style=""font-size:60px;"">+</div>","null","html-keyboard-response","406","447555","0.0-6.0-0.200","RHGA","2","f","rechts","19","","fixation","","","",""
"658","img/0_300.png","70","image-keyboard-response","407","448213","0.0-6.0-1.200","RHGA","2","f","rechts","19","","","self","f","0","true"
"null","<div style=""font-size:60px;"">+</div>","null","html-keyboard-response","408","448715","0.0-6.0-0.201","RHGA","2","f","rechts","19","","fixation","","","",""
"737","img/90_180.png","74","image-keyboard-response","409","449453","0.0-6.0-1.201","RHGA","2","f","rechts","19","","","self","j","90","true"
"null","<div style=""font-size:60px;"">+</div>","null","html-keyboard-response","410","449754","0.0-6.0-0.202","RHGA","2","f","rechts","19","","fixation","","","",""
"745","img/150_120.png","70","image-keyboard-response","411","450499","0.0-6.0-1.202","RHGA","2","f","rechts","19","","","self","f","150","true"
"null","<div style=""font-size:60px;"">+</div>","null","html-keyboard-response","412","450801","0.0-6.0-0.203","RHGA","2","f","rechts","19","","fixation","","","",""
"651","img/0_270.png","70","image-keyboard-response","413","451452","0.0-6.0-1.203","RHGA","2","f","rechts","19","","","self","f","0","true"
"null","<div style=""font-size:60px;"">+</div>","null","html-keyboard-response","414","451903","0.0-6.0-0.204","RHGA","2","f","rechts","19","","fixation","","","",""
"1407","img/90_300.png","70","image-keyboard-response","415","453311","0.0-6.0-1.204","RHGA","2","f","rechts","19","","","self","f","90","true"
"null","<div style=""font-size:60px;"">+</div>","null","html-keyboard-response","416","453613","0.0-6.0-0.205","RHGA","2","f","rechts","19","","fixation","","","",""
"926","img/60_150.png","70","image-keyboard-response","417","454540","0.0-6.0-1.205","RHGA","2","f","rechts","19","","","self","f","60","true"
"null","<div style=""font-size:60px;"">+</div>","null","html-keyboard-response","418","454892","0.0-6.0-0.206","RHGA","2","f","rechts","19","","fixation","","","",""
"794","img/L30_180.png","70","image-keyboard-response","419","455687","0.0-6.0-1.206","RHGA","2","f","rechts","19","","","self","f","30","true"
"null","<div style=""font-size:60px;"">+</div>","null","html-keyboard-response","420","456039","0.0-6.0-0.207","RHGA","2","f","rechts","19","","fixation","","","",""
"870","img/90_120.png","70","image-keyboard-response","421","456909","0.0-6.0-1.207","RHGA","2","f","rechts","19","","","self","f","90","true"
"21378","<p>Du hast in 89% der Versuche korrekt entschieden.</p><p>Deine durchschnittliche Reaktionszeit war  763ms.</p><p>Dr&uuml;cke eine beliebige Taste, um die Session zu beenden. Vielen Dank!</p>","72","html-keyboard-response","422","478289","0.0-7.0","RHGA","2","f","rechts","19","","","","","",""
