"rt","stimulus","key_press","trial_type","trial_index","time_elapsed","internal_node_id","subject","session","sex","handedness","age","responses","test_part","condition","correct_response","angle","correct"
"3375","<p>Mental Rotation Experiment.</p> <p>Dr&uuml;cke eine beliebige Taste, um anzufangen.</p>","72","html-keyboard-response","0","3377","0.0-0.0","RHGA","3","f","rechts","19","","","","","",""
"13797","","","survey-text","1","17177","0.0-1.0","RHGA","3","f","rechts","19","{""Q0"":""RHGA""}","","","","",""
"2170","","","survey-text","2","19347","0.0-2.0","RHGA","3","f","rechts","19","{""Q0"":""3""}","","","","",""
"27359","","","survey-multi-choice","3","46708","0.0-3.0","RHGA","3","f","rechts","19","{""Q0"":""f"",""Q1"":""rechts""}","","","","",""
"2695","","","survey-text","4","49405","0.0-4.0","RHGA","3","f","rechts","19","{""Q0"":""19""}","","","","",""
"25274","<p> Stell dir vor, dass du vor einem runden Tisch stehst, auf dem sich ein blauer Ball am Tischrand befindet. Entlang des Tischrands ist jeweils ein verschieden langer Pfeil. Nun bewegst du dich entlang dieses Pfeils bis an seine Spitze. Wenn du am Ende des Pfeils angekommen bist, schau zur Tischmitte. </p> <img src='img/90_180.png'></img> <br> <p>Entscheide dann, ob der Ball von deiner neuen (vorgestellten) Position links oder rechts von dir liegt.</p> <p>Dr&uuml;cke die <strong>'f'</strong>-Taste f&uuml;r links, die <strong>'j'</strong>-Taste f&uuml;r rechts.</p> <br><p> Das Bild wird jeweils 1 Sekunde lang pr&auml;sentiert. Du hast 3 Sekunden Zeit eine Entscheidung zu treffen.</p>","74","html-keyboard-response","5","74680","0.0-5.0","RHGA","3","f","rechts","19","","","","","",""
"null","<div style=""font-size:60px;"">+</div>","null","html-keyboard-response","6","76033","0.0-6.0-0.0","RHGA","3","f","rechts","19","","fixation","","","",""
"932","img/30_180.png","74","image-keyboard-response","7","76967","0.0-6.0-1.0","RHGA","3","f","rechts","19","","","self","j","30","true"
"null","<div style=""font-size:60px;"">+</div>","null","html-keyboard-response","8","77468","0.0-6.0-0.1","RHGA","3","f","rechts","19","","fixation","","","",""
"856","img/90_240.png","74","image-keyboard-response","9","78325","0.0-6.0-1.1","RHGA","3","f","rechts","19","","","self","j","90","true"
"null","<div style=""font-size:60px;"">+</div>","null","html-keyboard-response","10","78727","0.0-6.0-0.2","RHGA","3","f","rechts","19","","fixation","","","",""
"776","img/150_90.png","70","image-keyboard-response","11","79504","0.0-6.0-1.2","RHGA","3","f","rechts","19","","","self","f","150","true"
"null","<div style=""font-size:60px;"">+</div>","null","html-keyboard-response","12","79855","0.0-6.0-0.3","RHGA","3","f","rechts","19","","fixation","","","",""
"807","img/90_120.png","70","image-keyboard-response","13","80663","0.0-6.0-1.3","RHGA","3","f","rechts","19","","","self","f","90","true"
"null","<div style=""font-size:60px;"">+</div>","null","html-keyboard-response","14","80964","0.0-6.0-0.4","RHGA","3","f","rechts","19","","fixation","","","",""
"799","img/150_270.png","74","image-keyboard-response","15","81764","0.0-6.0-1.4","RHGA","3","f","rechts","19","","","self","j","150","true"
"null","<div style=""font-size:60px;"">+</div>","null","html-keyboard-response","16","82165","0.0-6.0-0.5","RHGA","3","f","rechts","19","","fixation","","","",""
"852","img/L60_180.png","70","image-keyboard-response","17","83019","0.0-6.0-1.5","RHGA","3","f","rechts","19","","","self","f","60","true"
"null","<div style=""font-size:60px;"">+</div>","null","html-keyboard-response","18","83419","0.0-6.0-0.6","RHGA","3","f","rechts","19","","fixation","","","",""
"683","img/120_180.png","74","image-keyboard-response","19","84103","0.0-6.0-1.6","RHGA","3","f","rechts","19","","","self","j","120","true"
"null","<div style=""font-size:60px;"">+</div>","null","html-keyboard-response","20","84405","0.0-6.0-0.7","RHGA","3","f","rechts","19","","fixation","","","",""
"700","img/120_150.png","70","image-keyboard-response","21","85106","0.0-6.0-1.7","RHGA","3","f","rechts","19","","","self","f","120","true"
"null","<div style=""font-size:60px;"">+</div>","null","html-keyboard-response","22","85607","0.0-6.0-0.8","RHGA","3","f","rechts","19","","fixation","","","",""
"691","img/0_300.png","70","image-keyboard-response","23","86300","0.0-6.0-1.8","RHGA","3","f","rechts","19","","","self","f","0","true"
"null","<div style=""font-size:60px;"">+</div>","null","html-keyboard-response","24","86800","0.0-6.0-0.9","RHGA","3","f","rechts","19","","fixation","","","",""
"727","img/L90_180.png","70","image-keyboard-response","25","87528","0.0-6.0-1.9","RHGA","3","f","rechts","19","","","self","f","90","true"
"null","<div style=""font-size:60px;"">+</div>","null","html-keyboard-response","26","87930","0.0-6.0-0.10","RHGA","3","f","rechts","19","","fixation","","","",""
"677","img/0_60.png","74","image-keyboard-response","27","88607","0.0-6.0-1.10","RHGA","3","f","rechts","19","","","self","j","0","true"
"null","<div style=""font-size:60px;"">+</div>","null","html-keyboard-response","28","89008","0.0-6.0-0.11","RHGA","3","f","rechts","19","","fixation","","","",""
"673","img/0_210.png","70","image-keyboard-response","29","89682","0.0-6.0-1.11","RHGA","3","f","rechts","19","","","self","f","0","true"
"null","<div style=""font-size:60px;"">+</div>","null","html-keyboard-response","30","90034","0.0-6.0-0.12","RHGA","3","f","rechts","19","","fixation","","","",""
"935","img/90_60.png","74","image-keyboard-response","31","90970","0.0-6.0-1.12","RHGA","3","f","rechts","19","","","self","j","90","true"
"null","<div style=""font-size:60px;"">+</div>","null","html-keyboard-response","32","91321","0.0-6.0-0.13","RHGA","3","f","rechts","19","","fixation","","","",""
"703","img/0_270.png","70","image-keyboard-response","33","92025","0.0-6.0-1.13","RHGA","3","f","rechts","19","","","self","f","0","true"
"null","<div style=""font-size:60px;"">+</div>","null","html-keyboard-response","34","92426","0.0-6.0-0.14","RHGA","3","f","rechts","19","","fixation","","","",""
"665","img/0_120.png","74","image-keyboard-response","35","93092","0.0-6.0-1.14","RHGA","3","f","rechts","19","","","self","j","0","true"
"null","<div style=""font-size:60px;"">+</div>","null","html-keyboard-response","36","93493","0.0-6.0-0.15","RHGA","3","f","rechts","19","","fixation","","","",""
"691","img/0_90.png","74","image-keyboard-response","37","94185","0.0-6.0-1.15","RHGA","3","f","rechts","19","","","self","j","0","true"
"null","<div style=""font-size:60px;"">+</div>","null","html-keyboard-response","38","94585","0.0-6.0-0.16","RHGA","3","f","rechts","19","","fixation","","","",""
"856","img/30_270.png","70","image-keyboard-response","39","95442","0.0-6.0-1.16","RHGA","3","f","rechts","19","","","self","f","30","true"
"null","<div style=""font-size:60px;"">+</div>","null","html-keyboard-response","40","95943","0.0-6.0-0.17","RHGA","3","f","rechts","19","","fixation","","","",""
"735","img/150_120.png","70","image-keyboard-response","41","96679","0.0-6.0-1.17","RHGA","3","f","rechts","19","","","self","f","150","true"
"null","<div style=""font-size:60px;"">+</div>","null","html-keyboard-response","42","97080","0.0-6.0-0.18","RHGA","3","f","rechts","19","","fixation","","","",""
"653","img/L120_180.png","70","image-keyboard-response","43","97733","0.0-6.0-1.18","RHGA","3","f","rechts","19","","","self","f","120","true"
"null","<div style=""font-size:60px;"">+</div>","null","html-keyboard-response","44","98034","0.0-6.0-0.19","RHGA","3","f","rechts","19","","fixation","","","",""
"721","img/90_180.png","74","image-keyboard-response","45","98757","0.0-6.0-1.19","RHGA","3","f","rechts","19","","","self","j","90","true"
"null","<div style=""font-size:60px;"">+</div>","null","html-keyboard-response","46","99258","0.0-6.0-0.20","RHGA","3","f","rechts","19","","fixation","","","",""
"685","img/120_270.png","74","image-keyboard-response","47","99944","0.0-6.0-1.20","RHGA","3","f","rechts","19","","","self","j","120","true"
"null","<div style=""font-size:60px;"">+</div>","null","html-keyboard-response","48","100395","0.0-6.0-0.21","RHGA","3","f","rechts","19","","fixation","","","",""
"817","img/60_210.png","74","image-keyboard-response","49","101214","0.0-6.0-1.21","RHGA","3","f","rechts","19","","","self","j","60","true"
"null","<div style=""font-size:60px;"">+</div>","null","html-keyboard-response","50","101514","0.0-6.0-0.22","RHGA","3","f","rechts","19","","fixation","","","",""
"929","img/90_30.png","70","image-keyboard-response","51","102445","0.0-6.0-1.22","RHGA","3","f","rechts","19","","","self","j","90","false"
"null","<div style=""font-size:60px;"">+</div>","null","html-keyboard-response","52","102845","0.0-6.0-0.23","RHGA","3","f","rechts","19","","fixation","","","",""
"1066","img/30_60.png","74","image-keyboard-response","53","103912","0.0-6.0-1.23","RHGA","3","f","rechts","19","","","self","j","30","true"
"null","<div style=""font-size:60px;"">+</div>","null","html-keyboard-response","54","104413","0.0-6.0-0.24","RHGA","3","f","rechts","19","","fixation","","","",""
"804","img/90_330.png","70","image-keyboard-response","55","105219","0.0-6.0-1.24","RHGA","3","f","rechts","19","","","self","f","90","true"
"null","<div style=""font-size:60px;"">+</div>","null","html-keyboard-response","56","105620","0.0-6.0-0.25","RHGA","3","f","rechts","19","","fixation","","","",""
"790","img/60_180.png","74","image-keyboard-response","57","106411","0.0-6.0-1.25","RHGA","3","f","rechts","19","","","self","j","60","true"
"null","<div style=""font-size:60px;"">+</div>","null","html-keyboard-response","58","106812","0.0-6.0-0.26","RHGA","3","f","rechts","19","","fixation","","","",""
"658","img/150_240.png","74","image-keyboard-response","59","107472","0.0-6.0-1.26","RHGA","3","f","rechts","19","","","self","j","150","true"
"null","<div style=""font-size:60px;"">+</div>","null","html-keyboard-response","60","107773","0.0-6.0-0.27","RHGA","3","f","rechts","19","","fixation","","","",""
"824","img/30_300.png","70","image-keyboard-response","61","108598","0.0-6.0-1.27","RHGA","3","f","rechts","19","","","self","f","30","true"
"null","<div style=""font-size:60px;"">+</div>","null","html-keyboard-response","62","108999","0.0-6.0-0.28","RHGA","3","f","rechts","19","","fixation","","","",""
"1113","img/30_90.png","74","image-keyboard-response","63","110113","0.0-6.0-1.28","RHGA","3","f","rechts","19","","","self","j","30","true"
"null","<div style=""font-size:60px;"">+</div>","null","html-keyboard-response","64","110515","0.0-6.0-0.29","RHGA","3","f","rechts","19","","fixation","","","",""
"920","img/60_90.png","74","image-keyboard-response","65","111436","0.0-6.0-1.29","RHGA","3","f","rechts","19","","","self","j","60","true"
"null","<div style=""font-size:60px;"">+</div>","null","html-keyboard-response","66","111887","0.0-6.0-0.30","RHGA","3","f","rechts","19","","fixation","","","",""
"738","img/0_150.png","74","image-keyboard-response","67","112626","0.0-6.0-1.30","RHGA","3","f","rechts","19","","","self","j","0","true"
"null","<div style=""font-size:60px;"">+</div>","null","html-keyboard-response","68","112927","0.0-6.0-0.31","RHGA","3","f","rechts","19","","fixation","","","",""
"804","img/0_30.png","74","image-keyboard-response","69","113732","0.0-6.0-1.31","RHGA","3","f","rechts","19","","","self","j","0","true"
"null","<div style=""font-size:60px;"">+</div>","null","html-keyboard-response","70","114084","0.0-6.0-0.32","RHGA","3","f","rechts","19","","fixation","","","",""
"950","img/150_60.png","70","image-keyboard-response","71","115035","0.0-6.0-1.32","RHGA","3","f","rechts","19","","","self","f","150","true"
"null","<div style=""font-size:60px;"">+</div>","null","html-keyboard-response","72","115387","0.0-6.0-0.33","RHGA","3","f","rechts","19","","fixation","","","",""
"737","img/L150_180.png","70","image-keyboard-response","73","116125","0.0-6.0-1.33","RHGA","3","f","rechts","19","","","self","f","150","true"
"null","<div style=""font-size:60px;"">+</div>","null","html-keyboard-response","74","116526","0.0-6.0-0.34","RHGA","3","f","rechts","19","","fixation","","","",""
"796","img/60_150.png","70","image-keyboard-response","75","117323","0.0-6.0-1.34","RHGA","3","f","rechts","19","","","self","f","60","true"
"null","<div style=""font-size:60px;"">+</div>","null","html-keyboard-response","76","117725","0.0-6.0-0.35","RHGA","3","f","rechts","19","","fixation","","","",""
"1135","img/60_330.png","70","image-keyboard-response","77","118861","0.0-6.0-1.35","RHGA","3","f","rechts","19","","","self","f","60","true"
"null","<div style=""font-size:60px;"">+</div>","null","html-keyboard-response","78","119262","0.0-6.0-0.36","RHGA","3","f","rechts","19","","fixation","","","",""
"850","img/90_300.png","70","image-keyboard-response","79","120113","0.0-6.0-1.36","RHGA","3","f","rechts","19","","","self","f","90","true"
"null","<div style=""font-size:60px;"">+</div>","null","html-keyboard-response","80","120414","0.0-6.0-0.37","RHGA","3","f","rechts","19","","fixation","","","",""
"839","img/30_240.png","70","image-keyboard-response","81","121254","0.0-6.0-1.37","RHGA","3","f","rechts","19","","","self","f","30","true"
"null","<div style=""font-size:60px;"">+</div>","null","html-keyboard-response","82","121706","0.0-6.0-0.38","RHGA","3","f","rechts","19","","fixation","","","",""
"780","img/90_150.png","70","image-keyboard-response","83","122487","0.0-6.0-1.38","RHGA","3","f","rechts","19","","","self","f","90","true"
"null","<div style=""font-size:60px;"">+</div>","null","html-keyboard-response","84","122938","0.0-6.0-0.39","RHGA","3","f","rechts","19","","fixation","","","",""
"819","img/30_120.png","70","image-keyboard-response","85","123758","0.0-6.0-1.39","RHGA","3","f","rechts","19","","","self","j","30","false"
"null","<div style=""font-size:60px;"">+</div>","null","html-keyboard-response","86","124059","0.0-6.0-0.40","RHGA","3","f","rechts","19","","fixation","","","",""
"1102","img/L30_180.png","70","image-keyboard-response","87","125163","0.0-6.0-1.40","RHGA","3","f","rechts","19","","","self","f","30","true"
"null","<div style=""font-size:60px;"">+</div>","null","html-keyboard-response","88","125663","0.0-6.0-0.41","RHGA","3","f","rechts","19","","fixation","","","",""
"732","img/150_180.png","74","image-keyboard-response","89","126396","0.0-6.0-1.41","RHGA","3","f","rechts","19","","","self","j","150","true"
"null","<div style=""font-size:60px;"">+</div>","null","html-keyboard-response","90","126797","0.0-6.0-0.42","RHGA","3","f","rechts","19","","fixation","","","",""
"666","img/120_210.png","74","image-keyboard-response","91","127464","0.0-6.0-1.42","RHGA","3","f","rechts","19","","","self","j","120","true"
"null","<div style=""font-size:60px;"">+</div>","null","html-keyboard-response","92","127765","0.0-6.0-0.43","RHGA","3","f","rechts","19","","fixation","","","",""
"724","img/150_300.png","74","image-keyboard-response","93","128491","0.0-6.0-1.43","RHGA","3","f","rechts","19","","","self","j","150","true"
"null","<div style=""font-size:60px;"">+</div>","null","html-keyboard-response","94","128792","0.0-6.0-0.44","RHGA","3","f","rechts","19","","fixation","","","",""
"775","img/90_210.png","74","image-keyboard-response","95","129568","0.0-6.0-1.44","RHGA","3","f","rechts","19","","","self","j","90","true"
"null","<div style=""font-size:60px;"">+</div>","null","html-keyboard-response","96","130069","0.0-6.0-0.45","RHGA","3","f","rechts","19","","fixation","","","",""
"632","img/0_330.png","70","image-keyboard-response","97","130702","0.0-6.0-1.45","RHGA","3","f","rechts","19","","","self","f","0","true"
"null","<div style=""font-size:60px;"">+</div>","null","html-keyboard-response","98","131103","0.0-6.0-0.46","RHGA","3","f","rechts","19","","fixation","","","",""
"587","img/0_240.png","70","image-keyboard-response","99","131691","0.0-6.0-1.46","RHGA","3","f","rechts","19","","","self","f","0","true"
"null","<div style=""font-size:60px;"">+</div>","null","html-keyboard-response","100","132192","0.0-6.0-0.47","RHGA","3","f","rechts","19","","fixation","","","",""
"1077","img/120_330.png","74","image-keyboard-response","101","133271","0.0-6.0-1.47","RHGA","3","f","rechts","19","","","self","f","120","false"
"null","<div style=""font-size:60px;"">+</div>","null","html-keyboard-response","102","133621","0.0-6.0-0.48","RHGA","3","f","rechts","19","","fixation","","","",""
"2015","img/60_30.png","74","image-keyboard-response","103","135637","0.0-6.0-1.48","RHGA","3","f","rechts","19","","","self","j","60","true"
"null","<div style=""font-size:60px;"">+</div>","null","html-keyboard-response","104","136039","0.0-6.0-0.49","RHGA","3","f","rechts","19","","fixation","","","",""
"867","img/120_30.png","74","image-keyboard-response","105","136906","0.0-6.0-1.49","RHGA","3","f","rechts","19","","","self","j","120","true"
"null","<div style=""font-size:60px;"">+</div>","null","html-keyboard-response","106","137207","0.0-6.0-0.50","RHGA","3","f","rechts","19","","fixation","","","",""
"1066","img/120_90.png","70","image-keyboard-response","107","138273","0.0-6.0-1.50","RHGA","3","f","rechts","19","","","self","f","120","true"
"null","<div style=""font-size:60px;"">+</div>","null","html-keyboard-response","108","138674","0.0-6.0-0.51","RHGA","3","f","rechts","19","","fixation","","","",""
"1250","img/60_270.png","70","image-keyboard-response","109","139925","0.0-6.0-1.51","RHGA","3","f","rechts","19","","","self","f","60","true"
"null","<div style=""font-size:60px;"">+</div>","null","html-keyboard-response","110","140276","0.0-6.0-0.52","RHGA","3","f","rechts","19","","fixation","","","",""
"928","img/30_120.png","70","image-keyboard-response","111","141204","0.0-6.0-1.52","RHGA","3","f","rechts","19","","","self","j","30","false"
"null","<div style=""font-size:60px;"">+</div>","null","html-keyboard-response","112","141605","0.0-6.0-0.53","RHGA","3","f","rechts","19","","fixation","","","",""
"921","img/120_270.png","74","image-keyboard-response","113","142526","0.0-6.0-1.53","RHGA","3","f","rechts","19","","","self","j","120","true"
"null","<div style=""font-size:60px;"">+</div>","null","html-keyboard-response","114","142877","0.0-6.0-0.54","RHGA","3","f","rechts","19","","fixation","","","",""
"752","img/90_180.png","74","image-keyboard-response","115","143629","0.0-6.0-1.54","RHGA","3","f","rechts","19","","","self","j","90","true"
"null","<div style=""font-size:60px;"">+</div>","null","html-keyboard-response","116","144030","0.0-6.0-0.55","RHGA","3","f","rechts","19","","fixation","","","",""
"749","img/0_60.png","74","image-keyboard-response","117","144779","0.0-6.0-1.55","RHGA","3","f","rechts","19","","","self","j","0","true"
"null","<div style=""font-size:60px;"">+</div>","null","html-keyboard-response","118","145080","0.0-6.0-0.56","RHGA","3","f","rechts","19","","fixation","","","",""
"713","img/0_30.png","74","image-keyboard-response","119","145794","0.0-6.0-1.56","RHGA","3","f","rechts","19","","","self","j","0","true"
"null","<div style=""font-size:60px;"">+</div>","null","html-keyboard-response","120","146094","0.0-6.0-0.57","RHGA","3","f","rechts","19","","fixation","","","",""
"819","img/30_300.png","70","image-keyboard-response","121","146914","0.0-6.0-1.57","RHGA","3","f","rechts","19","","","self","f","30","true"
"null","<div style=""font-size:60px;"">+</div>","null","html-keyboard-response","122","147416","0.0-6.0-0.58","RHGA","3","f","rechts","19","","fixation","","","",""
"778","img/60_150.png","70","image-keyboard-response","123","148195","0.0-6.0-1.58","RHGA","3","f","rechts","19","","","self","f","60","true"
"null","<div style=""font-size:60px;"">+</div>","null","html-keyboard-response","124","148646","0.0-6.0-0.59","RHGA","3","f","rechts","19","","fixation","","","",""
"693","img/30_240.png","70","image-keyboard-response","125","149340","0.0-6.0-1.59","RHGA","3","f","rechts","19","","","self","f","30","true"
"null","<div style=""font-size:60px;"">+</div>","null","html-keyboard-response","126","149791","0.0-6.0-0.60","RHGA","3","f","rechts","19","","fixation","","","",""
"798","img/60_30.png","74","image-keyboard-response","127","150591","0.0-6.0-1.60","RHGA","3","f","rechts","19","","","self","j","60","true"
"null","<div style=""font-size:60px;"">+</div>","null","html-keyboard-response","128","151042","0.0-6.0-0.61","RHGA","3","f","rechts","19","","fixation","","","",""
"1114","img/90_300.png","74","image-keyboard-response","129","152156","0.0-6.0-1.61","RHGA","3","f","rechts","19","","","self","f","90","false"
"null","<div style=""font-size:60px;"">+</div>","null","html-keyboard-response","130","152457","0.0-6.0-0.62","RHGA","3","f","rechts","19","","fixation","","","",""
"725","img/L30_180.png","70","image-keyboard-response","131","153183","0.0-6.0-1.62","RHGA","3","f","rechts","19","","","self","f","30","true"
"null","<div style=""font-size:60px;"">+</div>","null","html-keyboard-response","132","153583","0.0-6.0-0.63","RHGA","3","f","rechts","19","","fixation","","","",""
"738","img/120_150.png","70","image-keyboard-response","133","154322","0.0-6.0-1.63","RHGA","3","f","rechts","19","","","self","f","120","true"
"null","<div style=""font-size:60px;"">+</div>","null","html-keyboard-response","134","154623","0.0-6.0-0.64","RHGA","3","f","rechts","19","","fixation","","","",""
"1463","img/90_30.png","74","image-keyboard-response","135","156088","0.0-6.0-1.64","RHGA","3","f","rechts","19","","","self","j","90","true"
"null","<div style=""font-size:60px;"">+</div>","null","html-keyboard-response","136","156439","0.0-6.0-0.65","RHGA","3","f","rechts","19","","fixation","","","",""
"736","img/L90_180.png","70","image-keyboard-response","137","157177","0.0-6.0-1.65","RHGA","3","f","rechts","19","","","self","f","90","true"
"null","<div style=""font-size:60px;"">+</div>","null","html-keyboard-response","138","157679","0.0-6.0-0.66","RHGA","3","f","rechts","19","","fixation","","","",""
"792","img/30_60.png","74","image-keyboard-response","139","158472","0.0-6.0-1.66","RHGA","3","f","rechts","19","","","self","j","30","true"
"null","<div style=""font-size:60px;"">+</div>","null","html-keyboard-response","140","158874","0.0-6.0-0.67","RHGA","3","f","rechts","19","","fixation","","","",""
"806","img/90_240.png","74","image-keyboard-response","141","159682","0.0-6.0-1.67","RHGA","3","f","rechts","19","","","self","j","90","true"
"null","<div style=""font-size:60px;"">+</div>","null","html-keyboard-response","142","159983","0.0-6.0-0.68","RHGA","3","f","rechts","19","","fixation","","","",""
"1168","img/150_60.png","70","image-keyboard-response","143","161152","0.0-6.0-1.68","RHGA","3","f","rechts","19","","","self","f","150","true"
"null","<div style=""font-size:60px;"">+</div>","null","html-keyboard-response","144","161452","0.0-6.0-0.69","RHGA","3","f","rechts","19","","fixation","","","",""
"761","img/L60_180.png","70","image-keyboard-response","145","162214","0.0-6.0-1.69","RHGA","3","f","rechts","19","","","self","f","60","true"
"null","<div style=""font-size:60px;"">+</div>","null","html-keyboard-response","146","162616","0.0-6.0-0.70","RHGA","3","f","rechts","19","","fixation","","","",""
"742","img/0_150.png","74","image-keyboard-response","147","163358","0.0-6.0-1.70","RHGA","3","f","rechts","19","","","self","j","0","true"
"null","<div style=""font-size:60px;"">+</div>","null","html-keyboard-response","148","163710","0.0-6.0-0.71","RHGA","3","f","rechts","19","","fixation","","","",""
"768","img/150_300.png","74","image-keyboard-response","149","164479","0.0-6.0-1.71","RHGA","3","f","rechts","19","","","self","j","150","true"
"null","<div style=""font-size:60px;"">+</div>","null","html-keyboard-response","150","164830","0.0-6.0-0.72","RHGA","3","f","rechts","19","","fixation","","","",""
"715","img/120_210.png","74","image-keyboard-response","151","165546","0.0-6.0-1.72","RHGA","3","f","rechts","19","","","self","j","120","true"
"null","<div style=""font-size:60px;"">+</div>","null","html-keyboard-response","152","165848","0.0-6.0-0.73","RHGA","3","f","rechts","19","","fixation","","","",""
"679","img/0_90.png","74","image-keyboard-response","153","166527","0.0-6.0-1.73","RHGA","3","f","rechts","19","","","self","j","0","true"
"null","<div style=""font-size:60px;"">+</div>","null","html-keyboard-response","154","166929","0.0-6.0-0.74","RHGA","3","f","rechts","19","","fixation","","","",""
"838","img/120_90.png","70","image-keyboard-response","155","167768","0.0-6.0-1.74","RHGA","3","f","rechts","19","","","self","f","120","true"
"null","<div style=""font-size:60px;"">+</div>","null","html-keyboard-response","156","168169","0.0-6.0-0.75","RHGA","3","f","rechts","19","","fixation","","","",""
"1225","img/120_30.png","70","image-keyboard-response","157","169394","0.0-6.0-1.75","RHGA","3","f","rechts","19","","","self","j","120","false"
"null","<div style=""font-size:60px;"">+</div>","null","html-keyboard-response","158","169695","0.0-6.0-0.76","RHGA","3","f","rechts","19","","fixation","","","",""
"653","img/90_210.png","74","image-keyboard-response","159","170349","0.0-6.0-1.76","RHGA","3","f","rechts","19","","","self","j","90","true"
"null","<div style=""font-size:60px;"">+</div>","null","html-keyboard-response","160","170750","0.0-6.0-0.77","RHGA","3","f","rechts","19","","fixation","","","",""
"627","img/0_330.png","70","image-keyboard-response","161","171378","0.0-6.0-1.77","RHGA","3","f","rechts","19","","","self","f","0","true"
"null","<div style=""font-size:60px;"">+</div>","null","html-keyboard-response","162","171779","0.0-6.0-0.78","RHGA","3","f","rechts","19","","fixation","","","",""
"690","img/30_270.png","70","image-keyboard-response","163","172469","0.0-6.0-1.78","RHGA","3","f","rechts","19","","","self","f","30","true"
"null","<div style=""font-size:60px;"">+</div>","null","html-keyboard-response","164","172820","0.0-6.0-0.79","RHGA","3","f","rechts","19","","fixation","","","",""
"818","img/60_210.png","74","image-keyboard-response","165","173639","0.0-6.0-1.79","RHGA","3","f","rechts","19","","","self","j","60","true"
"null","<div style=""font-size:60px;"">+</div>","null","html-keyboard-response","166","173941","0.0-6.0-0.80","RHGA","3","f","rechts","19","","fixation","","","",""
"946","img/30_90.png","74","image-keyboard-response","167","174887","0.0-6.0-1.80","RHGA","3","f","rechts","19","","","self","j","30","true"
"null","<div style=""font-size:60px;"">+</div>","null","html-keyboard-response","168","175338","0.0-6.0-0.81","RHGA","3","f","rechts","19","","fixation","","","",""
"762","img/120_180.png","74","image-keyboard-response","169","176100","0.0-6.0-1.81","RHGA","3","f","rechts","19","","","self","j","120","true"
"null","<div style=""font-size:60px;"">+</div>","null","html-keyboard-response","170","176552","0.0-6.0-0.82","RHGA","3","f","rechts","19","","fixation","","","",""
"619","img/150_270.png","74","image-keyboard-response","171","177171","0.0-6.0-1.82","RHGA","3","f","rechts","19","","","self","j","150","true"
"null","<div style=""font-size:60px;"">+</div>","null","html-keyboard-response","172","177621","0.0-6.0-0.83","RHGA","3","f","rechts","19","","fixation","","","",""
"694","img/150_90.png","70","image-keyboard-response","173","178316","0.0-6.0-1.83","RHGA","3","f","rechts","19","","","self","f","150","true"
"null","<div style=""font-size:60px;"">+</div>","null","html-keyboard-response","174","178617","0.0-6.0-0.84","RHGA","3","f","rechts","19","","fixation","","","",""
"1411","img/60_90.png","74","image-keyboard-response","175","180030","0.0-6.0-1.84","RHGA","3","f","rechts","19","","","self","j","60","true"
"null","<div style=""font-size:60px;"">+</div>","null","html-keyboard-response","176","180530","0.0-6.0-0.85","RHGA","3","f","rechts","19","","fixation","","","",""
"567","img/150_180.png","74","image-keyboard-response","177","181098","0.0-6.0-1.85","RHGA","3","f","rechts","19","","","self","j","150","true"
"null","<div style=""font-size:60px;"">+</div>","null","html-keyboard-response","178","181399","0.0-6.0-0.86","RHGA","3","f","rechts","19","","fixation","","","",""
"577","img/0_300.png","70","image-keyboard-response","179","181977","0.0-6.0-1.86","RHGA","3","f","rechts","19","","","self","f","0","true"
"null","<div style=""font-size:60px;"">+</div>","null","html-keyboard-response","180","182278","0.0-6.0-0.87","RHGA","3","f","rechts","19","","fixation","","","",""
"709","img/150_120.png","70","image-keyboard-response","181","182988","0.0-6.0-1.87","RHGA","3","f","rechts","19","","","self","f","150","true"
"null","<div style=""font-size:60px;"">+</div>","null","html-keyboard-response","182","183488","0.0-6.0-0.88","RHGA","3","f","rechts","19","","fixation","","","",""
"1067","img/90_60.png","74","image-keyboard-response","183","184556","0.0-6.0-1.88","RHGA","3","f","rechts","19","","","self","j","90","true"
"null","<div style=""font-size:60px;"">+</div>","null","html-keyboard-response","184","185007","0.0-6.0-0.89","RHGA","3","f","rechts","19","","fixation","","","",""
"646","img/60_180.png","74","image-keyboard-response","185","185654","0.0-6.0-1.89","RHGA","3","f","rechts","19","","","self","j","60","true"
"null","<div style=""font-size:60px;"">+</div>","null","html-keyboard-response","186","186104","0.0-6.0-0.90","RHGA","3","f","rechts","19","","fixation","","","",""
"619","img/0_270.png","70","image-keyboard-response","187","186724","0.0-6.0-1.90","RHGA","3","f","rechts","19","","","self","f","0","true"
"null","<div style=""font-size:60px;"">+</div>","null","html-keyboard-response","188","187125","0.0-6.0-0.91","RHGA","3","f","rechts","19","","fixation","","","",""
"866","img/120_330.png","74","image-keyboard-response","189","187992","0.0-6.0-1.91","RHGA","3","f","rechts","19","","","self","f","120","false"
"null","<div style=""font-size:60px;"">+</div>","null","html-keyboard-response","190","188343","0.0-6.0-0.92","RHGA","3","f","rechts","19","","fixation","","","",""
"783","img/L120_180.png","70","image-keyboard-response","191","189128","0.0-6.0-1.92","RHGA","3","f","rechts","19","","","self","f","120","true"
"null","<div style=""font-size:60px;"">+</div>","null","html-keyboard-response","192","189528","0.0-6.0-0.93","RHGA","3","f","rechts","19","","fixation","","","",""
"656","img/0_210.png","70","image-keyboard-response","193","190186","0.0-6.0-1.93","RHGA","3","f","rechts","19","","","self","f","0","true"
"null","<div style=""font-size:60px;"">+</div>","null","html-keyboard-response","194","190486","0.0-6.0-0.94","RHGA","3","f","rechts","19","","fixation","","","",""
"794","img/150_240.png","74","image-keyboard-response","195","191281","0.0-6.0-1.94","RHGA","3","f","rechts","19","","","self","j","150","true"
"null","<div style=""font-size:60px;"">+</div>","null","html-keyboard-response","196","191733","0.0-6.0-0.95","RHGA","3","f","rechts","19","","fixation","","","",""
"919","img/90_330.png","70","image-keyboard-response","197","192652","0.0-6.0-1.95","RHGA","3","f","rechts","19","","","self","f","90","true"
"null","<div style=""font-size:60px;"">+</div>","null","html-keyboard-response","198","192953","0.0-6.0-0.96","RHGA","3","f","rechts","19","","fixation","","","",""
"887","img/30_180.png","74","image-keyboard-response","199","193841","0.0-6.0-1.96","RHGA","3","f","rechts","19","","","self","j","30","true"
"null","<div style=""font-size:60px;"">+</div>","null","html-keyboard-response","200","194291","0.0-6.0-0.97","RHGA","3","f","rechts","19","","fixation","","","",""
"749","img/90_120.png","70","image-keyboard-response","201","195042","0.0-6.0-1.97","RHGA","3","f","rechts","19","","","self","f","90","true"
"null","<div style=""font-size:60px;"">+</div>","null","html-keyboard-response","202","195543","0.0-6.0-0.98","RHGA","3","f","rechts","19","","fixation","","","",""
"595","img/L150_180.png","70","image-keyboard-response","203","196138","0.0-6.0-1.98","RHGA","3","f","rechts","19","","","self","f","150","true"
"null","<div style=""font-size:60px;"">+</div>","null","html-keyboard-response","204","196489","0.0-6.0-0.99","RHGA","3","f","rechts","19","","fixation","","","",""
"858","img/60_270.png","74","image-keyboard-response","205","197348","0.0-6.0-1.99","RHGA","3","f","rechts","19","","","self","f","60","false"
"null","<div style=""font-size:60px;"">+</div>","null","html-keyboard-response","206","197749","0.0-6.0-0.100","RHGA","3","f","rechts","19","","fixation","","","",""
"976","img/60_330.png","70","image-keyboard-response","207","198728","0.0-6.0-1.100","RHGA","3","f","rechts","19","","","self","f","60","true"
"null","<div style=""font-size:60px;"">+</div>","null","html-keyboard-response","208","199179","0.0-6.0-0.101","RHGA","3","f","rechts","19","","fixation","","","",""
"644","img/0_120.png","74","image-keyboard-response","209","199823","0.0-6.0-1.101","RHGA","3","f","rechts","19","","","self","j","0","true"
"null","<div style=""font-size:60px;"">+</div>","null","html-keyboard-response","210","200324","0.0-6.0-0.102","RHGA","3","f","rechts","19","","fixation","","","",""
"756","img/90_150.png","70","image-keyboard-response","211","201081","0.0-6.0-1.102","RHGA","3","f","rechts","19","","","self","f","90","true"
"null","<div style=""font-size:60px;"">+</div>","null","html-keyboard-response","212","201582","0.0-6.0-0.103","RHGA","3","f","rechts","19","","fixation","","","",""
"617","img/0_240.png","70","image-keyboard-response","213","202199","0.0-6.0-1.103","RHGA","3","f","rechts","19","","","self","f","0","true"
"null","<div style=""font-size:60px;"">+</div>","null","html-keyboard-response","214","202500","0.0-6.0-0.104","RHGA","3","f","rechts","19","","fixation","","","",""
"735","img/90_150.png","70","image-keyboard-response","215","203236","0.0-6.0-1.104","RHGA","3","f","rechts","19","","","self","f","90","true"
"null","<div style=""font-size:60px;"">+</div>","null","html-keyboard-response","216","203537","0.0-6.0-0.105","RHGA","3","f","rechts","19","","fixation","","","",""
"795","img/120_270.png","74","image-keyboard-response","217","204333","0.0-6.0-1.105","RHGA","3","f","rechts","19","","","self","j","120","true"
"null","<div style=""font-size:60px;"">+</div>","null","html-keyboard-response","218","204734","0.0-6.0-0.106","RHGA","3","f","rechts","19","","fixation","","","",""
"679","img/150_240.png","74","image-keyboard-response","219","205414","0.0-6.0-1.106","RHGA","3","f","rechts","19","","","self","j","150","true"
"null","<div style=""font-size:60px;"">+</div>","null","html-keyboard-response","220","205714","0.0-6.0-0.107","RHGA","3","f","rechts","19","","fixation","","","",""
"655","img/150_120.png","70","image-keyboard-response","221","206370","0.0-6.0-1.107","RHGA","3","f","rechts","19","","","self","f","150","true"
"null","<div style=""font-size:60px;"">+</div>","null","html-keyboard-response","222","206821","0.0-6.0-0.108","RHGA","3","f","rechts","19","","fixation","","","",""
"534","img/L120_180.png","70","image-keyboard-response","223","207356","0.0-6.0-1.108","RHGA","3","f","rechts","19","","","self","f","120","true"
"null","<div style=""font-size:60px;"">+</div>","null","html-keyboard-response","224","207707","0.0-6.0-0.109","RHGA","3","f","rechts","19","","fixation","","","",""
"751","img/90_120.png","70","image-keyboard-response","225","208458","0.0-6.0-1.109","RHGA","3","f","rechts","19","","","self","f","90","true"
"null","<div style=""font-size:60px;"">+</div>","null","html-keyboard-response","226","208909","0.0-6.0-0.110","RHGA","3","f","rechts","19","","fixation","","","",""
"798","img/90_180.png","74","image-keyboard-response","227","209707","0.0-6.0-1.110","RHGA","3","f","rechts","19","","","self","j","90","true"
"null","<div style=""font-size:60px;"">+</div>","null","html-keyboard-response","228","210108","0.0-6.0-0.111","RHGA","3","f","rechts","19","","fixation","","","",""
"1197","img/150_60.png","70","image-keyboard-response","229","211306","0.0-6.0-1.111","RHGA","3","f","rechts","19","","","self","f","150","true"
"null","<div style=""font-size:60px;"">+</div>","null","html-keyboard-response","230","211707","0.0-6.0-0.112","RHGA","3","f","rechts","19","","fixation","","","",""
"662","img/60_150.png","70","image-keyboard-response","231","212370","0.0-6.0-1.112","RHGA","3","f","rechts","19","","","self","f","60","true"
"null","<div style=""font-size:60px;"">+</div>","null","html-keyboard-response","232","212671","0.0-6.0-0.113","RHGA","3","f","rechts","19","","fixation","","","",""
"668","img/0_240.png","70","image-keyboard-response","233","213340","0.0-6.0-1.113","RHGA","3","f","rechts","19","","","self","f","0","true"
"null","<div style=""font-size:60px;"">+</div>","null","html-keyboard-response","234","213741","0.0-6.0-0.114","RHGA","3","f","rechts","19","","fixation","","","",""
"549","img/120_210.png","74","image-keyboard-response","235","214292","0.0-6.0-1.114","RHGA","3","f","rechts","19","","","self","j","120","true"
"null","<div style=""font-size:60px;"">+</div>","null","html-keyboard-response","236","214743","0.0-6.0-0.115","RHGA","3","f","rechts","19","","fixation","","","",""
"559","img/120_330.png","74","image-keyboard-response","237","215303","0.0-6.0-1.115","RHGA","3","f","rechts","19","","","self","f","120","false"
"null","<div style=""font-size:60px;"">+</div>","null","html-keyboard-response","238","215704","0.0-6.0-0.116","RHGA","3","f","rechts","19","","fixation","","","",""
"849","img/60_210.png","74","image-keyboard-response","239","216554","0.0-6.0-1.116","RHGA","3","f","rechts","19","","","self","j","60","true"
"null","<div style=""font-size:60px;"">+</div>","null","html-keyboard-response","240","216955","0.0-6.0-0.117","RHGA","3","f","rechts","19","","fixation","","","",""
"605","img/0_90.png","74","image-keyboard-response","241","217561","0.0-6.0-1.117","RHGA","3","f","rechts","19","","","self","j","0","true"
"null","<div style=""font-size:60px;"">+</div>","null","html-keyboard-response","242","218012","0.0-6.0-0.118","RHGA","3","f","rechts","19","","fixation","","","",""
"721","img/0_210.png","70","image-keyboard-response","243","218733","0.0-6.0-1.118","RHGA","3","f","rechts","19","","","self","f","0","true"
"null","<div style=""font-size:60px;"">+</div>","null","html-keyboard-response","244","219035","0.0-6.0-0.119","RHGA","3","f","rechts","19","","fixation","","","",""
"1516","img/90_60.png","74","image-keyboard-response","245","220551","0.0-6.0-1.119","RHGA","3","f","rechts","19","","","self","j","90","true"
"null","<div style=""font-size:60px;"">+</div>","null","html-keyboard-response","246","220902","0.0-6.0-0.120","RHGA","3","f","rechts","19","","fixation","","","",""
"767","img/150_270.png","74","image-keyboard-response","247","221670","0.0-6.0-1.120","RHGA","3","f","rechts","19","","","self","j","150","true"
"null","<div style=""font-size:60px;"">+</div>","null","html-keyboard-response","248","222071","0.0-6.0-0.121","RHGA","3","f","rechts","19","","fixation","","","",""
"638","img/90_300.png","70","image-keyboard-response","249","222711","0.0-6.0-1.121","RHGA","3","f","rechts","19","","","self","f","90","true"
"null","<div style=""font-size:60px;"">+</div>","null","html-keyboard-response","250","223211","0.0-6.0-0.122","RHGA","3","f","rechts","19","","fixation","","","",""
"794","img/60_30.png","74","image-keyboard-response","251","224007","0.0-6.0-1.122","RHGA","3","f","rechts","19","","","self","j","60","true"
"null","<div style=""font-size:60px;"">+</div>","null","html-keyboard-response","252","224307","0.0-6.0-0.123","RHGA","3","f","rechts","19","","fixation","","","",""
"650","img/30_240.png","74","image-keyboard-response","253","224958","0.0-6.0-1.123","RHGA","3","f","rechts","19","","","self","f","30","false"
"null","<div style=""font-size:60px;"">+</div>","null","html-keyboard-response","254","225260","0.0-6.0-0.124","RHGA","3","f","rechts","19","","fixation","","","",""
"754","img/L30_180.png","70","image-keyboard-response","255","226014","0.0-6.0-1.124","RHGA","3","f","rechts","19","","","self","f","30","true"
"null","<div style=""font-size:60px;"">+</div>","null","html-keyboard-response","256","226364","0.0-6.0-0.125","RHGA","3","f","rechts","19","","fixation","","","",""
"626","img/120_180.png","74","image-keyboard-response","257","226992","0.0-6.0-1.125","RHGA","3","f","rechts","19","","","self","j","120","true"
"null","<div style=""font-size:60px;"">+</div>","null","html-keyboard-response","258","227293","0.0-6.0-0.126","RHGA","3","f","rechts","19","","fixation","","","",""
"656","img/30_120.png","70","image-keyboard-response","259","227951","0.0-6.0-1.126","RHGA","3","f","rechts","19","","","self","j","30","false"
"null","<div style=""font-size:60px;"">+</div>","null","html-keyboard-response","260","228252","0.0-6.0-0.127","RHGA","3","f","rechts","19","","fixation","","","",""
"667","img/150_180.png","74","image-keyboard-response","261","228921","0.0-6.0-1.127","RHGA","3","f","rechts","19","","","self","j","150","true"
"null","<div style=""font-size:60px;"">+</div>","null","html-keyboard-response","262","229371","0.0-6.0-0.128","RHGA","3","f","rechts","19","","fixation","","","",""
"828","img/120_90.png","70","image-keyboard-response","263","230200","0.0-6.0-1.128","RHGA","3","f","rechts","19","","","self","f","120","true"
"null","<div style=""font-size:60px;"">+</div>","null","html-keyboard-response","264","230502","0.0-6.0-0.129","RHGA","3","f","rechts","19","","fixation","","","",""
"576","img/0_60.png","74","image-keyboard-response","265","231078","0.0-6.0-1.129","RHGA","3","f","rechts","19","","","self","j","0","true"
"null","<div style=""font-size:60px;"">+</div>","null","html-keyboard-response","266","231430","0.0-6.0-0.130","RHGA","3","f","rechts","19","","fixation","","","",""
"631","img/60_90.png","74","image-keyboard-response","267","232062","0.0-6.0-1.130","RHGA","3","f","rechts","19","","","self","j","60","true"
"null","<div style=""font-size:60px;"">+</div>","null","html-keyboard-response","268","232463","0.0-6.0-0.131","RHGA","3","f","rechts","19","","fixation","","","",""
"653","img/120_30.png","74","image-keyboard-response","269","233118","0.0-6.0-1.131","RHGA","3","f","rechts","19","","","self","j","120","true"
"null","<div style=""font-size:60px;"">+</div>","null","html-keyboard-response","270","233569","0.0-6.0-0.132","RHGA","3","f","rechts","19","","fixation","","","",""
"817","img/120_150.png","70","image-keyboard-response","271","234386","0.0-6.0-1.132","RHGA","3","f","rechts","19","","","self","f","120","true"
"null","<div style=""font-size:60px;"">+</div>","null","html-keyboard-response","272","234888","0.0-6.0-0.133","RHGA","3","f","rechts","19","","fixation","","","",""
"600","img/90_240.png","74","image-keyboard-response","273","235489","0.0-6.0-1.133","RHGA","3","f","rechts","19","","","self","j","90","true"
"null","<div style=""font-size:60px;"">+</div>","null","html-keyboard-response","274","235940","0.0-6.0-0.134","RHGA","3","f","rechts","19","","fixation","","","",""
"641","img/0_270.png","70","image-keyboard-response","275","236582","0.0-6.0-1.134","RHGA","3","f","rechts","19","","","self","f","0","true"
"null","<div style=""font-size:60px;"">+</div>","null","html-keyboard-response","276","237084","0.0-6.0-0.135","RHGA","3","f","rechts","19","","fixation","","","",""
"521","img/90_330.png","74","image-keyboard-response","277","237605","0.0-6.0-1.135","RHGA","3","f","rechts","19","","","self","f","90","false"
"null","<div style=""font-size:60px;"">+</div>","null","html-keyboard-response","278","238107","0.0-6.0-0.136","RHGA","3","f","rechts","19","","fixation","","","",""
"796","img/0_330.png","70","image-keyboard-response","279","238903","0.0-6.0-1.136","RHGA","3","f","rechts","19","","","self","f","0","true"
"null","<div style=""font-size:60px;"">+</div>","null","html-keyboard-response","280","239305","0.0-6.0-0.137","RHGA","3","f","rechts","19","","fixation","","","",""
"750","img/0_300.png","70","image-keyboard-response","281","240055","0.0-6.0-1.137","RHGA","3","f","rechts","19","","","self","f","0","true"
"null","<div style=""font-size:60px;"">+</div>","null","html-keyboard-response","282","240556","0.0-6.0-0.138","RHGA","3","f","rechts","19","","fixation","","","",""
"883","img/30_300.png","70","image-keyboard-response","283","241440","0.0-6.0-1.138","RHGA","3","f","rechts","19","","","self","f","30","true"
"null","<div style=""font-size:60px;"">+</div>","null","html-keyboard-response","284","241741","0.0-6.0-0.139","RHGA","3","f","rechts","19","","fixation","","","",""
"1213","img/90_30.png","74","image-keyboard-response","285","242954","0.0-6.0-1.139","RHGA","3","f","rechts","19","","","self","j","90","true"
"null","<div style=""font-size:60px;"">+</div>","null","html-keyboard-response","286","243355","0.0-6.0-0.140","RHGA","3","f","rechts","19","","fixation","","","",""
"684","img/L150_180.png","70","image-keyboard-response","287","244040","0.0-6.0-1.140","RHGA","3","f","rechts","19","","","self","f","150","true"
"null","<div style=""font-size:60px;"">+</div>","null","html-keyboard-response","288","244440","0.0-6.0-0.141","RHGA","3","f","rechts","19","","fixation","","","",""
"701","img/L90_180.png","70","image-keyboard-response","289","245142","0.0-6.0-1.141","RHGA","3","f","rechts","19","","","self","f","90","true"
"null","<div style=""font-size:60px;"">+</div>","null","html-keyboard-response","290","245643","0.0-6.0-0.142","RHGA","3","f","rechts","19","","fixation","","","",""
"707","img/150_300.png","74","image-keyboard-response","291","246350","0.0-6.0-1.142","RHGA","3","f","rechts","19","","","self","j","150","true"
"null","<div style=""font-size:60px;"">+</div>","null","html-keyboard-response","292","246701","0.0-6.0-0.143","RHGA","3","f","rechts","19","","fixation","","","",""
"849","img/150_90.png","74","image-keyboard-response","293","247550","0.0-6.0-1.143","RHGA","3","f","rechts","19","","","self","f","150","false"
"null","<div style=""font-size:60px;"">+</div>","null","html-keyboard-response","294","247901","0.0-6.0-0.144","RHGA","3","f","rechts","19","","fixation","","","",""
"807","img/30_180.png","74","image-keyboard-response","295","248708","0.0-6.0-1.144","RHGA","3","f","rechts","19","","","self","j","30","true"
"null","<div style=""font-size:60px;"">+</div>","null","html-keyboard-response","296","249009","0.0-6.0-0.145","RHGA","3","f","rechts","19","","fixation","","","",""
"834","img/0_150.png","74","image-keyboard-response","297","249844","0.0-6.0-1.145","RHGA","3","f","rechts","19","","","self","j","0","true"
"null","<div style=""font-size:60px;"">+</div>","null","html-keyboard-response","298","250195","0.0-6.0-0.146","RHGA","3","f","rechts","19","","fixation","","","",""
"812","img/60_330.png","70","image-keyboard-response","299","251008","0.0-6.0-1.146","RHGA","3","f","rechts","19","","","self","f","60","true"
"null","<div style=""font-size:60px;"">+</div>","null","html-keyboard-response","300","251309","0.0-6.0-0.147","RHGA","3","f","rechts","19","","fixation","","","",""
"773","img/0_30.png","74","image-keyboard-response","301","252082","0.0-6.0-1.147","RHGA","3","f","rechts","19","","","self","j","0","true"
"null","<div style=""font-size:60px;"">+</div>","null","html-keyboard-response","302","252533","0.0-6.0-0.148","RHGA","3","f","rechts","19","","fixation","","","",""
"734","img/30_60.png","74","image-keyboard-response","303","253267","0.0-6.0-1.148","RHGA","3","f","rechts","19","","","self","j","30","true"
"null","<div style=""font-size:60px;"">+</div>","null","html-keyboard-response","304","253617","0.0-6.0-0.149","RHGA","3","f","rechts","19","","fixation","","","",""
"902","img/60_270.png","70","image-keyboard-response","305","254520","0.0-6.0-1.149","RHGA","3","f","rechts","19","","","self","f","60","true"
"null","<div style=""font-size:60px;"">+</div>","null","html-keyboard-response","306","254971","0.0-6.0-0.150","RHGA","3","f","rechts","19","","fixation","","","",""
"817","img/60_180.png","74","image-keyboard-response","307","255790","0.0-6.0-1.150","RHGA","3","f","rechts","19","","","self","j","60","true"
"null","<div style=""font-size:60px;"">+</div>","null","html-keyboard-response","308","256190","0.0-6.0-0.151","RHGA","3","f","rechts","19","","fixation","","","",""
"685","img/30_270.png","70","image-keyboard-response","309","256876","0.0-6.0-1.151","RHGA","3","f","rechts","19","","","self","f","30","true"
"null","<div style=""font-size:60px;"">+</div>","null","html-keyboard-response","310","257327","0.0-6.0-0.152","RHGA","3","f","rechts","19","","fixation","","","",""
"688","img/L60_180.png","70","image-keyboard-response","311","258015","0.0-6.0-1.152","RHGA","3","f","rechts","19","","","self","f","60","true"
"null","<div style=""font-size:60px;"">+</div>","null","html-keyboard-response","312","258316","0.0-6.0-0.153","RHGA","3","f","rechts","19","","fixation","","","",""
"737","img/30_90.png","74","image-keyboard-response","313","259054","0.0-6.0-1.153","RHGA","3","f","rechts","19","","","self","j","30","true"
"null","<div style=""font-size:60px;"">+</div>","null","html-keyboard-response","314","259455","0.0-6.0-0.154","RHGA","3","f","rechts","19","","fixation","","","",""
"675","img/0_120.png","74","image-keyboard-response","315","260131","0.0-6.0-1.154","RHGA","3","f","rechts","19","","","self","j","0","true"
"null","<div style=""font-size:60px;"">+</div>","null","html-keyboard-response","316","260532","0.0-6.0-0.155","RHGA","3","f","rechts","19","","fixation","","","",""
"876","img/90_210.png","74","image-keyboard-response","317","261409","0.0-6.0-1.155","RHGA","3","f","rechts","19","","","self","j","90","true"
"null","<div style=""font-size:60px;"">+</div>","null","html-keyboard-response","318","261859","0.0-6.0-0.156","RHGA","3","f","rechts","19","","fixation","","","",""
"658","img/L90_180.png","70","image-keyboard-response","319","262518","0.0-6.0-1.156","RHGA","3","f","rechts","19","","","self","f","90","true"
"null","<div style=""font-size:60px;"">+</div>","null","html-keyboard-response","320","262869","0.0-6.0-0.157","RHGA","3","f","rechts","19","","fixation","","","",""
"705","img/L30_180.png","70","image-keyboard-response","321","263575","0.0-6.0-1.157","RHGA","3","f","rechts","19","","","self","f","30","true"
"null","<div style=""font-size:60px;"">+</div>","null","html-keyboard-response","322","264076","0.0-6.0-0.158","RHGA","3","f","rechts","19","","fixation","","","",""
"877","img/30_300.png","70","image-keyboard-response","323","264954","0.0-6.0-1.158","RHGA","3","f","rechts","19","","","self","f","30","true"
"null","<div style=""font-size:60px;"">+</div>","null","html-keyboard-response","324","265404","0.0-6.0-0.159","RHGA","3","f","rechts","19","","fixation","","","",""
"797","img/30_180.png","74","image-keyboard-response","325","266202","0.0-6.0-1.159","RHGA","3","f","rechts","19","","","self","j","30","true"
"null","<div style=""font-size:60px;"">+</div>","null","html-keyboard-response","326","266703","0.0-6.0-0.160","RHGA","3","f","rechts","19","","fixation","","","",""
"747","img/60_330.png","70","image-keyboard-response","327","267450","0.0-6.0-1.160","RHGA","3","f","rechts","19","","","self","f","60","true"
"null","<div style=""font-size:60px;"">+</div>","null","html-keyboard-response","328","267901","0.0-6.0-0.161","RHGA","3","f","rechts","19","","fixation","","","",""
"929","img/120_270.png","74","image-keyboard-response","329","268830","0.0-6.0-1.161","RHGA","3","f","rechts","19","","","self","j","120","true"
"null","<div style=""font-size:60px;"">+</div>","null","html-keyboard-response","330","269130","0.0-6.0-0.162","RHGA","3","f","rechts","19","","fixation","","","",""
"901","img/60_90.png","74","image-keyboard-response","331","270032","0.0-6.0-1.162","RHGA","3","f","rechts","19","","","self","j","60","true"
"null","<div style=""font-size:60px;"">+</div>","null","html-keyboard-response","332","270332","0.0-6.0-0.163","RHGA","3","f","rechts","19","","fixation","","","",""
"1073","img/30_60.png","74","image-keyboard-response","333","271406","0.0-6.0-1.163","RHGA","3","f","rechts","19","","","self","j","30","true"
"null","<div style=""font-size:60px;"">+</div>","null","html-keyboard-response","334","271808","0.0-6.0-0.164","RHGA","3","f","rechts","19","","fixation","","","",""
"871","img/90_180.png","74","image-keyboard-response","335","272680","0.0-6.0-1.164","RHGA","3","f","rechts","19","","","self","j","90","true"
"null","<div style=""font-size:60px;"">+</div>","null","html-keyboard-response","336","273081","0.0-6.0-0.165","RHGA","3","f","rechts","19","","fixation","","","",""
"1012","img/150_300.png","74","image-keyboard-response","337","274093","0.0-6.0-1.165","RHGA","3","f","rechts","19","","","self","j","150","true"
"null","<div style=""font-size:60px;"">+</div>","null","html-keyboard-response","338","274544","0.0-6.0-0.166","RHGA","3","f","rechts","19","","fixation","","","",""
"860","img/60_150.png","70","image-keyboard-response","339","275405","0.0-6.0-1.166","RHGA","3","f","rechts","19","","","self","f","60","true"
"null","<div style=""font-size:60px;"">+</div>","null","html-keyboard-response","340","275905","0.0-6.0-0.167","RHGA","3","f","rechts","19","","fixation","","","",""
"667","img/90_210.png","74","image-keyboard-response","341","276573","0.0-6.0-1.167","RHGA","3","f","rechts","19","","","self","j","90","true"
"null","<div style=""font-size:60px;"">+</div>","null","html-keyboard-response","342","276975","0.0-6.0-0.168","RHGA","3","f","rechts","19","","fixation","","","",""
"803","img/90_120.png","70","image-keyboard-response","343","277778","0.0-6.0-1.168","RHGA","3","f","rechts","19","","","self","f","90","true"
"null","<div style=""font-size:60px;"">+</div>","null","html-keyboard-response","344","278129","0.0-6.0-0.169","RHGA","3","f","rechts","19","","fixation","","","",""
"809","img/30_90.png","74","image-keyboard-response","345","278939","0.0-6.0-1.169","RHGA","3","f","rechts","19","","","self","j","30","true"
"null","<div style=""font-size:60px;"">+</div>","null","html-keyboard-response","346","279391","0.0-6.0-0.170","RHGA","3","f","rechts","19","","fixation","","","",""
"765","img/150_60.png","70","image-keyboard-response","347","280156","0.0-6.0-1.170","RHGA","3","f","rechts","19","","","self","f","150","true"
"null","<div style=""font-size:60px;"">+</div>","null","html-keyboard-response","348","280507","0.0-6.0-0.171","RHGA","3","f","rechts","19","","fixation","","","",""
"699","img/0_210.png","70","image-keyboard-response","349","281207","0.0-6.0-1.171","RHGA","3","f","rechts","19","","","self","f","0","true"
"null","<div style=""font-size:60px;"">+</div>","null","html-keyboard-response","350","281658","0.0-6.0-0.172","RHGA","3","f","rechts","19","","fixation","","","",""
"615","img/150_180.png","74","image-keyboard-response","351","282274","0.0-6.0-1.172","RHGA","3","f","rechts","19","","","self","j","150","true"
"null","<div style=""font-size:60px;"">+</div>","null","html-keyboard-response","352","282624","0.0-6.0-0.173","RHGA","3","f","rechts","19","","fixation","","","",""
"679","img/150_270.png","74","image-keyboard-response","353","283304","0.0-6.0-1.173","RHGA","3","f","rechts","19","","","self","j","150","true"
"null","<div style=""font-size:60px;"">+</div>","null","html-keyboard-response","354","283605","0.0-6.0-0.174","RHGA","3","f","rechts","19","","fixation","","","",""
"793","img/120_210.png","74","image-keyboard-response","355","284398","0.0-6.0-1.174","RHGA","3","f","rechts","19","","","self","j","120","true"
"null","<div style=""font-size:60px;"">+</div>","null","html-keyboard-response","356","284849","0.0-6.0-0.175","RHGA","3","f","rechts","19","","fixation","","","",""
"878","img/120_90.png","70","image-keyboard-response","357","285729","0.0-6.0-1.175","RHGA","3","f","rechts","19","","","self","f","120","true"
"null","<div style=""font-size:60px;"">+</div>","null","html-keyboard-response","358","286230","0.0-6.0-0.176","RHGA","3","f","rechts","19","","fixation","","","",""
"615","img/0_90.png","74","image-keyboard-response","359","286845","0.0-6.0-1.176","RHGA","3","f","rechts","19","","","self","j","0","true"
"null","<div style=""font-size:60px;"">+</div>","null","html-keyboard-response","360","287196","0.0-6.0-0.177","RHGA","3","f","rechts","19","","fixation","","","",""
"601","img/60_180.png","74","image-keyboard-response","361","287797","0.0-6.0-1.177","RHGA","3","f","rechts","19","","","self","j","60","true"
"null","<div style=""font-size:60px;"">+</div>","null","html-keyboard-response","362","288098","0.0-6.0-0.178","RHGA","3","f","rechts","19","","fixation","","","",""
"700","img/0_60.png","74","image-keyboard-response","363","288799","0.0-6.0-1.178","RHGA","3","f","rechts","19","","","self","j","0","true"
"null","<div style=""font-size:60px;"">+</div>","null","html-keyboard-response","364","289301","0.0-6.0-0.179","RHGA","3","f","rechts","19","","fixation","","","",""
"684","img/120_180.png","74","image-keyboard-response","365","289985","0.0-6.0-1.179","RHGA","3","f","rechts","19","","","self","j","120","true"
"null","<div style=""font-size:60px;"">+</div>","null","html-keyboard-response","366","290386","0.0-6.0-0.180","RHGA","3","f","rechts","19","","fixation","","","",""
"607","img/30_240.png","70","image-keyboard-response","367","290994","0.0-6.0-1.180","RHGA","3","f","rechts","19","","","self","f","30","true"
"null","<div style=""font-size:60px;"">+</div>","null","html-keyboard-response","368","291295","0.0-6.0-0.181","RHGA","3","f","rechts","19","","fixation","","","",""
"799","img/150_240.png","74","image-keyboard-response","369","292095","0.0-6.0-1.181","RHGA","3","f","rechts","19","","","self","j","150","true"
"null","<div style=""font-size:60px;"">+</div>","null","html-keyboard-response","370","292496","0.0-6.0-0.182","RHGA","3","f","rechts","19","","fixation","","","",""
"605","img/150_120.png","70","image-keyboard-response","371","293102","0.0-6.0-1.182","RHGA","3","f","rechts","19","","","self","f","150","true"
"null","<div style=""font-size:60px;"">+</div>","null","html-keyboard-response","372","293453","0.0-6.0-0.183","RHGA","3","f","rechts","19","","fixation","","","",""
"765","img/90_30.png","74","image-keyboard-response","373","294219","0.0-6.0-1.183","RHGA","3","f","rechts","19","","","self","j","90","true"
"null","<div style=""font-size:60px;"">+</div>","null","html-keyboard-response","374","294671","0.0-6.0-0.184","RHGA","3","f","rechts","19","","fixation","","","",""
"687","img/90_240.png","74","image-keyboard-response","375","295358","0.0-6.0-1.184","RHGA","3","f","rechts","19","","","self","j","90","true"
"null","<div style=""font-size:60px;"">+</div>","null","html-keyboard-response","376","295709","0.0-6.0-0.185","RHGA","3","f","rechts","19","","fixation","","","",""
"830","img/60_30.png","74","image-keyboard-response","377","296540","0.0-6.0-1.185","RHGA","3","f","rechts","19","","","self","j","60","true"
"null","<div style=""font-size:60px;"">+</div>","null","html-keyboard-response","378","296891","0.0-6.0-0.186","RHGA","3","f","rechts","19","","fixation","","","",""
"1075","img/60_270.png","74","image-keyboard-response","379","297966","0.0-6.0-1.186","RHGA","3","f","rechts","19","","","self","f","60","false"
"null","<div style=""font-size:60px;"">+</div>","null","html-keyboard-response","380","298417","0.0-6.0-0.187","RHGA","3","f","rechts","19","","fixation","","","",""
"917","img/30_120.png","70","image-keyboard-response","381","299334","0.0-6.0-1.187","RHGA","3","f","rechts","19","","","self","j","30","false"
"null","<div style=""font-size:60px;"">+</div>","null","html-keyboard-response","382","299836","0.0-6.0-0.188","RHGA","3","f","rechts","19","","fixation","","","",""
"1064","img/120_30.png","74","image-keyboard-response","383","300900","0.0-6.0-1.188","RHGA","3","f","rechts","19","","","self","j","120","true"
"null","<div style=""font-size:60px;"">+</div>","null","html-keyboard-response","384","301201","0.0-6.0-0.189","RHGA","3","f","rechts","19","","fixation","","","",""
"767","img/L120_180.png","70","image-keyboard-response","385","301968","0.0-6.0-1.189","RHGA","3","f","rechts","19","","","self","f","120","true"
"null","<div style=""font-size:60px;"">+</div>","null","html-keyboard-response","386","302268","0.0-6.0-0.190","RHGA","3","f","rechts","19","","fixation","","","",""
"837","img/150_90.png","70","image-keyboard-response","387","303106","0.0-6.0-1.190","RHGA","3","f","rechts","19","","","self","f","150","true"
"null","<div style=""font-size:60px;"">+</div>","null","html-keyboard-response","388","303607","0.0-6.0-0.191","RHGA","3","f","rechts","19","","fixation","","","",""
"618","img/0_120.png","74","image-keyboard-response","389","304226","0.0-6.0-1.191","RHGA","3","f","rechts","19","","","self","j","0","true"
"null","<div style=""font-size:60px;"">+</div>","null","html-keyboard-response","390","304526","0.0-6.0-0.192","RHGA","3","f","rechts","19","","fixation","","","",""
"708","img/30_270.png","70","image-keyboard-response","391","305236","0.0-6.0-1.192","RHGA","3","f","rechts","19","","","self","f","30","true"
"null","<div style=""font-size:60px;"">+</div>","null","html-keyboard-response","392","305637","0.0-6.0-0.193","RHGA","3","f","rechts","19","","fixation","","","",""
"776","img/60_210.png","74","image-keyboard-response","393","306413","0.0-6.0-1.193","RHGA","3","f","rechts","19","","","self","j","60","true"
"null","<div style=""font-size:60px;"">+</div>","null","html-keyboard-response","394","306715","0.0-6.0-0.194","RHGA","3","f","rechts","19","","fixation","","","",""
"891","img/120_330.png","70","image-keyboard-response","395","307606","0.0-6.0-1.194","RHGA","3","f","rechts","19","","","self","f","120","true"
"null","<div style=""font-size:60px;"">+</div>","null","html-keyboard-response","396","308107","0.0-6.0-0.195","RHGA","3","f","rechts","19","","fixation","","","",""
"716","img/L150_180.png","70","image-keyboard-response","397","308824","0.0-6.0-1.195","RHGA","3","f","rechts","19","","","self","f","150","true"
"null","<div style=""font-size:60px;"">+</div>","null","html-keyboard-response","398","309275","0.0-6.0-0.196","RHGA","3","f","rechts","19","","fixation","","","",""
"584","img/0_330.png","70","image-keyboard-response","399","309860","0.0-6.0-1.196","RHGA","3","f","rechts","19","","","self","f","0","true"
"null","<div style=""font-size:60px;"">+</div>","null","html-keyboard-response","400","310360","0.0-6.0-0.197","RHGA","3","f","rechts","19","","fixation","","","",""
"569","img/L60_180.png","70","image-keyboard-response","401","310930","0.0-6.0-1.197","RHGA","3","f","rechts","19","","","self","f","60","true"
"null","<div style=""font-size:60px;"">+</div>","null","html-keyboard-response","402","311231","0.0-6.0-0.198","RHGA","3","f","rechts","19","","fixation","","","",""
"615","img/0_270.png","70","image-keyboard-response","403","311847","0.0-6.0-1.198","RHGA","3","f","rechts","19","","","self","f","0","true"
"null","<div style=""font-size:60px;"">+</div>","null","html-keyboard-response","404","312147","0.0-6.0-0.199","RHGA","3","f","rechts","19","","fixation","","","",""
"719","img/90_150.png","70","image-keyboard-response","405","312867","0.0-6.0-1.199","RHGA","3","f","rechts","19","","","self","f","90","true"
"null","<div style=""font-size:60px;"">+</div>","null","html-keyboard-response","406","313318","0.0-6.0-0.200","RHGA","3","f","rechts","19","","fixation","","","",""
"575","img/120_150.png","70","image-keyboard-response","407","313893","0.0-6.0-1.200","RHGA","3","f","rechts","19","","","self","f","120","true"
"null","<div style=""font-size:60px;"">+</div>","null","html-keyboard-response","408","314294","0.0-6.0-0.201","RHGA","3","f","rechts","19","","fixation","","","",""
"596","img/0_30.png","74","image-keyboard-response","409","314891","0.0-6.0-1.201","RHGA","3","f","rechts","19","","","self","j","0","true"
"null","<div style=""font-size:60px;"">+</div>","null","html-keyboard-response","410","315292","0.0-6.0-0.202","RHGA","3","f","rechts","19","","fixation","","","",""
"588","img/0_300.png","70","image-keyboard-response","411","315881","0.0-6.0-1.202","RHGA","3","f","rechts","19","","","self","f","0","true"
"null","<div style=""font-size:60px;"">+</div>","null","html-keyboard-response","412","316283","0.0-6.0-0.203","RHGA","3","f","rechts","19","","fixation","","","",""
"803","img/90_60.png","74","image-keyboard-response","413","317086","0.0-6.0-1.203","RHGA","3","f","rechts","19","","","self","j","90","true"
"null","<div style=""font-size:60px;"">+</div>","null","html-keyboard-response","414","317588","0.0-6.0-0.204","RHGA","3","f","rechts","19","","fixation","","","",""
"1071","img/90_330.png","70","image-keyboard-response","415","318660","0.0-6.0-1.204","RHGA","3","f","rechts","19","","","self","f","90","true"
"null","<div style=""font-size:60px;"">+</div>","null","html-keyboard-response","416","318961","0.0-6.0-0.205","RHGA","3","f","rechts","19","","fixation","","","",""
"581","img/0_150.png","74","image-keyboard-response","417","319542","0.0-6.0-1.205","RHGA","3","f","rechts","19","","","self","j","0","true"
"null","<div style=""font-size:60px;"">+</div>","null","html-keyboard-response","418","319893","0.0-6.0-0.206","RHGA","3","f","rechts","19","","fixation","","","",""
"553","img/0_240.png","70","image-keyboard-response","419","320448","0.0-6.0-1.206","RHGA","3","f","rechts","19","","","self","f","0","true"
"null","<div style=""font-size:60px;"">+</div>","null","html-keyboard-response","420","320949","0.0-6.0-0.207","RHGA","3","f","rechts","19","","fixation","","","",""
"834","img/90_300.png","70","image-keyboard-response","421","321784","0.0-6.0-1.207","RHGA","3","f","rechts","19","","","self","f","90","true"
"8847","<p>Du hast in 90% der Versuche korrekt entschieden.</p><p>Deine durchschnittliche Reaktionszeit war  783ms.</p><p>Dr&uuml;cke eine beliebige Taste, um die Session zu beenden. Vielen Dank!</p>","74","html-keyboard-response","422","330632","0.0-7.0","RHGA","3","f","rechts","19","","","","","",""
