"rt","stimulus","key_press","trial_type","trial_index","time_elapsed","internal_node_id","subject","session","sex","handedness","age","responses","test_part","condition","correct_response","angle","correct"
"4229","<p>Mental Rotation Experiment.</p> <p>Dr&uuml;cke eine beliebige Taste, um anzufangen.</p>","74","html-keyboard-response","0","4234","0.0-0.0","JOSC","2","m","rechts","24","","","","","",""
"7505","","","survey-text","1","11740","0.0-1.0","JOSC","2","m","rechts","24","{""Q0"":""JOSC""}","","","","",""
"4656","","","survey-text","2","16397","0.0-2.0","JOSC","2","m","rechts","24","{""Q0"":""2""}","","","","",""
"3592","","","survey-multi-choice","3","19992","0.0-3.0","JOSC","2","m","rechts","24","{""Q0"":""m"",""Q1"":""rechts""}","","","","",""
"3673","","","survey-text","4","23665","0.0-4.0","JOSC","2","m","rechts","24","{""Q0"":""24""}","","","","",""
"166475","<p>Stell dir vor, dass du vor einem runden Tisch stehst, auf dem sich ein blauer Ball am Tischrand befindet. Entlang des Tischrands ist jeweils ein verschieden langer Pfeil. Nun bleibst du an deinem Platz vor dem Tisch und rotierst den Tisch entlang des Pfeils (gleiche Richtung und Länge). </p> <img src='img/30_180.png'></img> <br><p> Nachdem du diese (vorgestellte) Rotation durchgef&uuml;hrt hast, schau in Richtung der Tischmitte, und entscheide dann, ob der Ball links oder rechts von dir liegt.</p> <p>Dr&uuml;cke die <strong>'f'</strong>-Taste f&uuml;r links, die <strong>'j'</strong>-Taste f&uuml;r rechts.</p><br><p> Das Bild wird jeweils 1 Sekunde lang pr&auml;sentiert. Du hast 3 Sekunden Zeit eine Entscheidung zu treffen.</p>","74","html-keyboard-response","5","190141","0.0-5.0","JOSC","2","m","rechts","24","","","","","",""
"null","<div style=""font-size:60px;"">+</div>","null","html-keyboard-response","6","191645","0.0-6.0-0.0","JOSC","2","m","rechts","24","","fixation","","","",""
"1625","img/150_270.png","74","image-keyboard-response","7","193272","0.0-6.0-1.0","JOSC","2","m","rechts","24","","","object","j","150","true"
"null","<div style=""font-size:60px;"">+</div>","null","html-keyboard-response","8","193624","0.0-6.0-0.1","JOSC","2","m","rechts","24","","fixation","","","",""
"786","img/0_60.png","74","image-keyboard-response","9","194412","0.0-6.0-1.1","JOSC","2","m","rechts","24","","","object","j","0","true"
"null","<div style=""font-size:60px;"">+</div>","null","html-keyboard-response","10","194713","0.0-6.0-0.2","JOSC","2","m","rechts","24","","fixation","","","",""
"1430","img/120_270.png","74","image-keyboard-response","11","196145","0.0-6.0-1.2","JOSC","2","m","rechts","24","","","object","j","120","true"
"null","<div style=""font-size:60px;"">+</div>","null","html-keyboard-response","12","196447","0.0-6.0-0.3","JOSC","2","m","rechts","24","","fixation","","","",""
"886","img/30_90.png","74","image-keyboard-response","13","197334","0.0-6.0-1.3","JOSC","2","m","rechts","24","","","object","j","30","true"
"null","<div style=""font-size:60px;"">+</div>","null","html-keyboard-response","14","197786","0.0-6.0-0.4","JOSC","2","m","rechts","24","","fixation","","","",""
"940","img/30_60.png","74","image-keyboard-response","15","198727","0.0-6.0-1.4","JOSC","2","m","rechts","24","","","object","j","30","true"
"null","<div style=""font-size:60px;"">+</div>","null","html-keyboard-response","16","199129","0.0-6.0-0.5","JOSC","2","m","rechts","24","","fixation","","","",""
"1353","img/60_270.png","70","image-keyboard-response","17","200483","0.0-6.0-1.5","JOSC","2","m","rechts","24","","","object","f","60","true"
"null","<div style=""font-size:60px;"">+</div>","null","html-keyboard-response","18","200835","0.0-6.0-0.6","JOSC","2","m","rechts","24","","fixation","","","",""
"744","img/0_270.png","70","image-keyboard-response","19","201580","0.0-6.0-1.6","JOSC","2","m","rechts","24","","","object","f","0","true"
"null","<div style=""font-size:60px;"">+</div>","null","html-keyboard-response","20","202032","0.0-6.0-0.7","JOSC","2","m","rechts","24","","fixation","","","",""
"841","img/30_240.png","70","image-keyboard-response","21","202874","0.0-6.0-1.7","JOSC","2","m","rechts","24","","","object","f","30","true"
"null","<div style=""font-size:60px;"">+</div>","null","html-keyboard-response","22","203176","0.0-6.0-0.8","JOSC","2","m","rechts","24","","fixation","","","",""
"1712","img/120_90.png","70","image-keyboard-response","23","204889","0.0-6.0-1.8","JOSC","2","m","rechts","24","","","object","f","120","true"
"null","<div style=""font-size:60px;"">+</div>","null","html-keyboard-response","24","205191","0.0-6.0-0.9","JOSC","2","m","rechts","24","","fixation","","","",""
"1125","img/30_300.png","70","image-keyboard-response","25","206317","0.0-6.0-1.9","JOSC","2","m","rechts","24","","","object","f","30","true"
"null","<div style=""font-size:60px;"">+</div>","null","html-keyboard-response","26","206618","0.0-6.0-0.10","JOSC","2","m","rechts","24","","fixation","","","",""
"997","img/90_150.png","74","image-keyboard-response","27","207616","0.0-6.0-1.10","JOSC","2","m","rechts","24","","","object","j","90","true"
"null","<div style=""font-size:60px;"">+</div>","null","html-keyboard-response","28","207968","0.0-6.0-0.11","JOSC","2","m","rechts","24","","fixation","","","",""
"885","img/90_60.png","70","image-keyboard-response","29","208854","0.0-6.0-1.11","JOSC","2","m","rechts","24","","","object","f","90","true"
"null","<div style=""font-size:60px;"">+</div>","null","html-keyboard-response","30","209356","0.0-6.0-0.12","JOSC","2","m","rechts","24","","fixation","","","",""
"786","img/L150_180.png","74","image-keyboard-response","31","210144","0.0-6.0-1.12","JOSC","2","m","rechts","24","","","object","j","150","true"
"null","<div style=""font-size:60px;"">+</div>","null","html-keyboard-response","32","210596","0.0-6.0-0.13","JOSC","2","m","rechts","24","","fixation","","","",""
"791","img/0_120.png","74","image-keyboard-response","33","211388","0.0-6.0-1.13","JOSC","2","m","rechts","24","","","object","j","0","true"
"null","<div style=""font-size:60px;"">+</div>","null","html-keyboard-response","34","211889","0.0-6.0-0.14","JOSC","2","m","rechts","24","","fixation","","","",""
"899","img/L60_180.png","74","image-keyboard-response","35","212790","0.0-6.0-1.14","JOSC","2","m","rechts","24","","","object","j","60","true"
"null","<div style=""font-size:60px;"">+</div>","null","html-keyboard-response","36","213142","0.0-6.0-0.15","JOSC","2","m","rechts","24","","fixation","","","",""
"860","img/0_300.png","70","image-keyboard-response","37","214004","0.0-6.0-1.15","JOSC","2","m","rechts","24","","","object","f","0","true"
"null","<div style=""font-size:60px;"">+</div>","null","html-keyboard-response","38","214355","0.0-6.0-0.16","JOSC","2","m","rechts","24","","fixation","","","",""
"943","img/60_30.png","70","image-keyboard-response","39","215301","0.0-6.0-1.16","JOSC","2","m","rechts","24","","","object","f","60","true"
"null","<div style=""font-size:60px;"">+</div>","null","html-keyboard-response","40","215702","0.0-6.0-0.17","JOSC","2","m","rechts","24","","fixation","","","",""
"958","img/60_150.png","74","image-keyboard-response","41","216661","0.0-6.0-1.17","JOSC","2","m","rechts","24","","","object","j","60","true"
"null","<div style=""font-size:60px;"">+</div>","null","html-keyboard-response","42","217063","0.0-6.0-0.18","JOSC","2","m","rechts","24","","fixation","","","",""
"974","img/30_120.png","74","image-keyboard-response","43","218038","0.0-6.0-1.18","JOSC","2","m","rechts","24","","","object","j","30","true"
"null","<div style=""font-size:60px;"">+</div>","null","html-keyboard-response","44","218440","0.0-6.0-0.19","JOSC","2","m","rechts","24","","fixation","","","",""
"1756","img/60_90.png","74","image-keyboard-response","45","220197","0.0-6.0-1.19","JOSC","2","m","rechts","24","","","object","j","60","true"
"null","<div style=""font-size:60px;"">+</div>","null","html-keyboard-response","46","220699","0.0-6.0-0.20","JOSC","2","m","rechts","24","","fixation","","","",""
"1070","img/L120_180.png","74","image-keyboard-response","47","221770","0.0-6.0-1.20","JOSC","2","m","rechts","24","","","object","j","120","true"
"null","<div style=""font-size:60px;"">+</div>","null","html-keyboard-response","48","222272","0.0-6.0-0.21","JOSC","2","m","rechts","24","","fixation","","","",""
"1264","img/150_120.png","70","image-keyboard-response","49","223537","0.0-6.0-1.21","JOSC","2","m","rechts","24","","","object","f","150","true"
"null","<div style=""font-size:60px;"">+</div>","null","html-keyboard-response","50","223839","0.0-6.0-0.22","JOSC","2","m","rechts","24","","fixation","","","",""
"1201","img/90_210.png","70","image-keyboard-response","51","225042","0.0-6.0-1.22","JOSC","2","m","rechts","24","","","object","f","90","true"
"null","<div style=""font-size:60px;"">+</div>","null","html-keyboard-response","52","225493","0.0-6.0-0.23","JOSC","2","m","rechts","24","","fixation","","","",""
"1551","img/120_180.png","70","image-keyboard-response","53","227046","0.0-6.0-1.23","JOSC","2","m","rechts","24","","","object","f","120","true"
"null","<div style=""font-size:60px;"">+</div>","null","html-keyboard-response","54","227497","0.0-6.0-0.24","JOSC","2","m","rechts","24","","fixation","","","",""
"1075","img/30_180.png","70","image-keyboard-response","55","228573","0.0-6.0-1.24","JOSC","2","m","rechts","24","","","object","f","30","true"
"null","<div style=""font-size:60px;"">+</div>","null","html-keyboard-response","56","229025","0.0-6.0-0.25","JOSC","2","m","rechts","24","","fixation","","","",""
"984","img/60_180.png","70","image-keyboard-response","57","230010","0.0-6.0-1.25","JOSC","2","m","rechts","24","","","object","f","60","true"
"null","<div style=""font-size:60px;"">+</div>","null","html-keyboard-response","58","230461","0.0-6.0-0.26","JOSC","2","m","rechts","24","","fixation","","","",""
"858","img/0_150.png","74","image-keyboard-response","59","231321","0.0-6.0-1.26","JOSC","2","m","rechts","24","","","object","j","0","true"
"null","<div style=""font-size:60px;"">+</div>","null","html-keyboard-response","60","231722","0.0-6.0-0.27","JOSC","2","m","rechts","24","","fixation","","","",""
"968","img/150_300.png","74","image-keyboard-response","61","232691","0.0-6.0-1.27","JOSC","2","m","rechts","24","","","object","j","150","true"
"null","<div style=""font-size:60px;"">+</div>","null","html-keyboard-response","62","232993","0.0-6.0-0.28","JOSC","2","m","rechts","24","","fixation","","","",""
"938","img/0_240.png","70","image-keyboard-response","63","233932","0.0-6.0-1.28","JOSC","2","m","rechts","24","","","object","f","0","true"
"null","<div style=""font-size:60px;"">+</div>","null","html-keyboard-response","64","234384","0.0-6.0-0.29","JOSC","2","m","rechts","24","","fixation","","","",""
"1135","img/120_210.png","70","image-keyboard-response","65","235520","0.0-6.0-1.29","JOSC","2","m","rechts","24","","","object","f","120","true"
"null","<div style=""font-size:60px;"">+</div>","null","html-keyboard-response","66","236022","0.0-6.0-0.30","JOSC","2","m","rechts","24","","fixation","","","",""
"702","img/L90_180.png","74","image-keyboard-response","67","236725","0.0-6.0-1.30","JOSC","2","m","rechts","24","","","object","j","90","true"
"null","<div style=""font-size:60px;"">+</div>","null","html-keyboard-response","68","237126","0.0-6.0-0.31","JOSC","2","m","rechts","24","","fixation","","","",""
"805","img/150_180.png","70","image-keyboard-response","69","237932","0.0-6.0-1.31","JOSC","2","m","rechts","24","","","object","f","150","true"
"null","<div style=""font-size:60px;"">+</div>","null","html-keyboard-response","70","238384","0.0-6.0-0.32","JOSC","2","m","rechts","24","","fixation","","","",""
"867","img/90_300.png","74","image-keyboard-response","71","239252","0.0-6.0-1.32","JOSC","2","m","rechts","24","","","object","j","90","true"
"null","<div style=""font-size:60px;"">+</div>","null","html-keyboard-response","72","239554","0.0-6.0-0.33","JOSC","2","m","rechts","24","","fixation","","","",""
"796","img/120_30.png","70","image-keyboard-response","73","240351","0.0-6.0-1.33","JOSC","2","m","rechts","24","","","object","f","120","true"
"null","<div style=""font-size:60px;"">+</div>","null","html-keyboard-response","74","240703","0.0-6.0-0.34","JOSC","2","m","rechts","24","","fixation","","","",""
"841","img/60_330.png","74","image-keyboard-response","75","241545","0.0-6.0-1.34","JOSC","2","m","rechts","24","","","object","j","60","true"
"null","<div style=""font-size:60px;"">+</div>","null","html-keyboard-response","76","241947","0.0-6.0-0.35","JOSC","2","m","rechts","24","","fixation","","","",""
"658","img/90_330.png","74","image-keyboard-response","77","242606","0.0-6.0-1.35","JOSC","2","m","rechts","24","","","object","j","90","true"
"null","<div style=""font-size:60px;"">+</div>","null","html-keyboard-response","78","242907","0.0-6.0-0.36","JOSC","2","m","rechts","24","","fixation","","","",""
"1093","img/150_240.png","70","image-keyboard-response","79","244001","0.0-6.0-1.36","JOSC","2","m","rechts","24","","","object","j","150","false"
"null","<div style=""font-size:60px;"">+</div>","null","html-keyboard-response","80","244353","0.0-6.0-0.37","JOSC","2","m","rechts","24","","fixation","","","",""
"1068","img/30_270.png","70","image-keyboard-response","81","245423","0.0-6.0-1.37","JOSC","2","m","rechts","24","","","object","f","30","true"
"null","<div style=""font-size:60px;"">+</div>","null","html-keyboard-response","82","245774","0.0-6.0-0.38","JOSC","2","m","rechts","24","","fixation","","","",""
"748","img/0_90.png","74","image-keyboard-response","83","246525","0.0-6.0-1.38","JOSC","2","m","rechts","24","","","object","j","0","true"
"null","<div style=""font-size:60px;"">+</div>","null","html-keyboard-response","84","246926","0.0-6.0-0.39","JOSC","2","m","rechts","24","","fixation","","","",""
"759","img/90_180.png","70","image-keyboard-response","85","247686","0.0-6.0-1.39","JOSC","2","m","rechts","24","","","object","f","90","true"
"null","<div style=""font-size:60px;"">+</div>","null","html-keyboard-response","86","248138","0.0-6.0-0.40","JOSC","2","m","rechts","24","","fixation","","","",""
"893","img/60_210.png","70","image-keyboard-response","87","249033","0.0-6.0-1.40","JOSC","2","m","rechts","24","","","object","f","60","true"
"null","<div style=""font-size:60px;"">+</div>","null","html-keyboard-response","88","249384","0.0-6.0-0.41","JOSC","2","m","rechts","24","","fixation","","","",""
"789","img/0_330.png","70","image-keyboard-response","89","250175","0.0-6.0-1.41","JOSC","2","m","rechts","24","","","object","f","0","true"
"null","<div style=""font-size:60px;"">+</div>","null","html-keyboard-response","90","250576","0.0-6.0-0.42","JOSC","2","m","rechts","24","","fixation","","","",""
"806","img/L30_180.png","74","image-keyboard-response","91","251383","0.0-6.0-1.42","JOSC","2","m","rechts","24","","","object","j","30","true"
"null","<div style=""font-size:60px;"">+</div>","null","html-keyboard-response","92","251735","0.0-6.0-0.43","JOSC","2","m","rechts","24","","fixation","","","",""
"859","img/90_240.png","70","image-keyboard-response","93","252596","0.0-6.0-1.43","JOSC","2","m","rechts","24","","","object","f","90","true"
"null","<div style=""font-size:60px;"">+</div>","null","html-keyboard-response","94","252997","0.0-6.0-0.44","JOSC","2","m","rechts","24","","fixation","","","",""
"1168","img/90_120.png","74","image-keyboard-response","95","254167","0.0-6.0-1.44","JOSC","2","m","rechts","24","","","object","j","90","true"
"null","<div style=""font-size:60px;"">+</div>","null","html-keyboard-response","96","254569","0.0-6.0-0.45","JOSC","2","m","rechts","24","","fixation","","","",""
"975","img/150_90.png","70","image-keyboard-response","97","255545","0.0-6.0-1.45","JOSC","2","m","rechts","24","","","object","f","150","true"
"null","<div style=""font-size:60px;"">+</div>","null","html-keyboard-response","98","255947","0.0-6.0-0.46","JOSC","2","m","rechts","24","","fixation","","","",""
"717","img/0_30.png","74","image-keyboard-response","99","256665","0.0-6.0-1.46","JOSC","2","m","rechts","24","","","object","j","0","true"
"null","<div style=""font-size:60px;"">+</div>","null","html-keyboard-response","100","256967","0.0-6.0-0.47","JOSC","2","m","rechts","24","","fixation","","","",""
"817","img/90_30.png","70","image-keyboard-response","101","257785","0.0-6.0-1.47","JOSC","2","m","rechts","24","","","object","f","90","true"
"null","<div style=""font-size:60px;"">+</div>","null","html-keyboard-response","102","258237","0.0-6.0-0.48","JOSC","2","m","rechts","24","","fixation","","","",""
"937","img/120_150.png","74","image-keyboard-response","103","259175","0.0-6.0-1.48","JOSC","2","m","rechts","24","","","object","j","120","true"
"null","<div style=""font-size:60px;"">+</div>","null","html-keyboard-response","104","259527","0.0-6.0-0.49","JOSC","2","m","rechts","24","","fixation","","","",""
"835","img/120_330.png","74","image-keyboard-response","105","260363","0.0-6.0-1.49","JOSC","2","m","rechts","24","","","object","j","120","true"
"null","<div style=""font-size:60px;"">+</div>","null","html-keyboard-response","106","260714","0.0-6.0-0.50","JOSC","2","m","rechts","24","","fixation","","","",""
"730","img/0_210.png","70","image-keyboard-response","107","261445","0.0-6.0-1.50","JOSC","2","m","rechts","24","","","object","f","0","true"
"null","<div style=""font-size:60px;"">+</div>","null","html-keyboard-response","108","261897","0.0-6.0-0.51","JOSC","2","m","rechts","24","","fixation","","","",""
"893","img/150_60.png","70","image-keyboard-response","109","262791","0.0-6.0-1.51","JOSC","2","m","rechts","24","","","object","f","150","true"
"null","<div style=""font-size:60px;"">+</div>","null","html-keyboard-response","110","263293","0.0-6.0-0.52","JOSC","2","m","rechts","24","","fixation","","","",""
"814","img/120_150.png","74","image-keyboard-response","111","264108","0.0-6.0-1.52","JOSC","2","m","rechts","24","","","object","j","120","true"
"null","<div style=""font-size:60px;"">+</div>","null","html-keyboard-response","112","264408","0.0-6.0-0.53","JOSC","2","m","rechts","24","","fixation","","","",""
"924","img/L60_180.png","74","image-keyboard-response","113","265334","0.0-6.0-1.53","JOSC","2","m","rechts","24","","","object","j","60","true"
"null","<div style=""font-size:60px;"">+</div>","null","html-keyboard-response","114","265835","0.0-6.0-0.54","JOSC","2","m","rechts","24","","fixation","","","",""
"903","img/60_270.png","70","image-keyboard-response","115","266740","0.0-6.0-1.54","JOSC","2","m","rechts","24","","","object","f","60","true"
"null","<div style=""font-size:60px;"">+</div>","null","html-keyboard-response","116","267091","0.0-6.0-0.55","JOSC","2","m","rechts","24","","fixation","","","",""
"793","img/0_270.png","70","image-keyboard-response","117","267886","0.0-6.0-1.55","JOSC","2","m","rechts","24","","","object","f","0","true"
"null","<div style=""font-size:60px;"">+</div>","null","html-keyboard-response","118","268237","0.0-6.0-0.56","JOSC","2","m","rechts","24","","fixation","","","",""
"748","img/L30_180.png","74","image-keyboard-response","119","268986","0.0-6.0-1.56","JOSC","2","m","rechts","24","","","object","j","30","true"
"null","<div style=""font-size:60px;"">+</div>","null","html-keyboard-response","120","269388","0.0-6.0-0.57","JOSC","2","m","rechts","24","","fixation","","","",""
"915","img/90_180.png","70","image-keyboard-response","121","270304","0.0-6.0-1.57","JOSC","2","m","rechts","24","","","object","f","90","true"
"null","<div style=""font-size:60px;"">+</div>","null","html-keyboard-response","122","270606","0.0-6.0-0.58","JOSC","2","m","rechts","24","","fixation","","","",""
"1420","img/30_60.png","74","image-keyboard-response","123","272027","0.0-6.0-1.58","JOSC","2","m","rechts","24","","","object","j","30","true"
"null","<div style=""font-size:60px;"">+</div>","null","html-keyboard-response","124","272379","0.0-6.0-0.59","JOSC","2","m","rechts","24","","fixation","","","",""
"736","img/90_60.png","70","image-keyboard-response","125","273116","0.0-6.0-1.59","JOSC","2","m","rechts","24","","","object","f","90","true"
"null","<div style=""font-size:60px;"">+</div>","null","html-keyboard-response","126","273468","0.0-6.0-0.60","JOSC","2","m","rechts","24","","fixation","","","",""
"1080","img/0_210.png","70","image-keyboard-response","127","274548","0.0-6.0-1.60","JOSC","2","m","rechts","24","","","object","f","0","true"
"null","<div style=""font-size:60px;"">+</div>","null","html-keyboard-response","128","274849","0.0-6.0-0.61","JOSC","2","m","rechts","24","","fixation","","","",""
"2091","img/120_180.png","70","image-keyboard-response","129","276941","0.0-6.0-1.61","JOSC","2","m","rechts","24","","","object","f","120","true"
"null","<div style=""font-size:60px;"">+</div>","null","html-keyboard-response","130","277293","0.0-6.0-0.62","JOSC","2","m","rechts","24","","fixation","","","",""
"825","img/30_120.png","74","image-keyboard-response","131","278119","0.0-6.0-1.62","JOSC","2","m","rechts","24","","","object","j","30","true"
"null","<div style=""font-size:60px;"">+</div>","null","html-keyboard-response","132","278421","0.0-6.0-0.63","JOSC","2","m","rechts","24","","fixation","","","",""
"749","img/30_240.png","70","image-keyboard-response","133","279170","0.0-6.0-1.63","JOSC","2","m","rechts","24","","","object","f","30","true"
"null","<div style=""font-size:60px;"">+</div>","null","html-keyboard-response","134","279471","0.0-6.0-0.64","JOSC","2","m","rechts","24","","fixation","","","",""
"820","img/30_270.png","70","image-keyboard-response","135","280293","0.0-6.0-1.64","JOSC","2","m","rechts","24","","","object","f","30","true"
"null","<div style=""font-size:60px;"">+</div>","null","html-keyboard-response","136","280744","0.0-6.0-0.65","JOSC","2","m","rechts","24","","fixation","","","",""
"1096","img/120_90.png","74","image-keyboard-response","137","281841","0.0-6.0-1.65","JOSC","2","m","rechts","24","","","object","f","120","false"
"null","<div style=""font-size:60px;"">+</div>","null","html-keyboard-response","138","282342","0.0-6.0-0.66","JOSC","2","m","rechts","24","","fixation","","","",""
"878","img/0_30.png","74","image-keyboard-response","139","283221","0.0-6.0-1.66","JOSC","2","m","rechts","24","","","object","j","0","true"
"null","<div style=""font-size:60px;"">+</div>","null","html-keyboard-response","140","283672","0.0-6.0-0.67","JOSC","2","m","rechts","24","","fixation","","","",""
"1365","img/90_120.png","74","image-keyboard-response","141","285038","0.0-6.0-1.67","JOSC","2","m","rechts","24","","","object","j","90","true"
"null","<div style=""font-size:60px;"">+</div>","null","html-keyboard-response","142","285340","0.0-6.0-0.68","JOSC","2","m","rechts","24","","fixation","","","",""
"822","img/150_180.png","70","image-keyboard-response","143","286163","0.0-6.0-1.68","JOSC","2","m","rechts","24","","","object","f","150","true"
"null","<div style=""font-size:60px;"">+</div>","null","html-keyboard-response","144","286515","0.0-6.0-0.69","JOSC","2","m","rechts","24","","fixation","","","",""
"619","img/90_30.png","70","image-keyboard-response","145","287136","0.0-6.0-1.69","JOSC","2","m","rechts","24","","","object","f","90","true"
"null","<div style=""font-size:60px;"">+</div>","null","html-keyboard-response","146","287437","0.0-6.0-0.70","JOSC","2","m","rechts","24","","fixation","","","",""
"1413","img/60_90.png","74","image-keyboard-response","147","288850","0.0-6.0-1.70","JOSC","2","m","rechts","24","","","object","j","60","true"
"null","<div style=""font-size:60px;"">+</div>","null","html-keyboard-response","148","289202","0.0-6.0-0.71","JOSC","2","m","rechts","24","","fixation","","","",""
"726","img/120_30.png","70","image-keyboard-response","149","289928","0.0-6.0-1.71","JOSC","2","m","rechts","24","","","object","f","120","true"
"null","<div style=""font-size:60px;"">+</div>","null","html-keyboard-response","150","290230","0.0-6.0-0.72","JOSC","2","m","rechts","24","","fixation","","","",""
"658","img/0_150.png","74","image-keyboard-response","151","290889","0.0-6.0-1.72","JOSC","2","m","rechts","24","","","object","j","0","true"
"null","<div style=""font-size:60px;"">+</div>","null","html-keyboard-response","152","291241","0.0-6.0-0.73","JOSC","2","m","rechts","24","","fixation","","","",""
"678","img/0_240.png","70","image-keyboard-response","153","291919","0.0-6.0-1.73","JOSC","2","m","rechts","24","","","object","f","0","true"
"null","<div style=""font-size:60px;"">+</div>","null","html-keyboard-response","154","292371","0.0-6.0-0.74","JOSC","2","m","rechts","24","","fixation","","","",""
"847","img/150_60.png","70","image-keyboard-response","155","293218","0.0-6.0-1.74","JOSC","2","m","rechts","24","","","object","f","150","true"
"null","<div style=""font-size:60px;"">+</div>","null","html-keyboard-response","156","293670","0.0-6.0-0.75","JOSC","2","m","rechts","24","","fixation","","","",""
"617","img/90_330.png","74","image-keyboard-response","157","294287","0.0-6.0-1.75","JOSC","2","m","rechts","24","","","object","j","90","true"
"null","<div style=""font-size:60px;"">+</div>","null","html-keyboard-response","158","294589","0.0-6.0-0.76","JOSC","2","m","rechts","24","","fixation","","","",""
"1064","img/30_180.png","70","image-keyboard-response","159","295654","0.0-6.0-1.76","JOSC","2","m","rechts","24","","","object","f","30","true"
"null","<div style=""font-size:60px;"">+</div>","null","html-keyboard-response","160","296006","0.0-6.0-0.77","JOSC","2","m","rechts","24","","fixation","","","",""
"941","img/90_210.png","70","image-keyboard-response","161","296947","0.0-6.0-1.77","JOSC","2","m","rechts","24","","","object","f","90","true"
"null","<div style=""font-size:60px;"">+</div>","null","html-keyboard-response","162","297249","0.0-6.0-0.78","JOSC","2","m","rechts","24","","fixation","","","",""
"748","img/90_300.png","74","image-keyboard-response","163","297999","0.0-6.0-1.78","JOSC","2","m","rechts","24","","","object","j","90","true"
"null","<div style=""font-size:60px;"">+</div>","null","html-keyboard-response","164","298499","0.0-6.0-0.79","JOSC","2","m","rechts","24","","fixation","","","",""
"692","img/0_300.png","70","image-keyboard-response","165","299192","0.0-6.0-1.79","JOSC","2","m","rechts","24","","","object","f","0","true"
"null","<div style=""font-size:60px;"">+</div>","null","html-keyboard-response","166","299643","0.0-6.0-0.80","JOSC","2","m","rechts","24","","fixation","","","",""
"843","img/L150_180.png","74","image-keyboard-response","167","300487","0.0-6.0-1.80","JOSC","2","m","rechts","24","","","object","j","150","true"
"null","<div style=""font-size:60px;"">+</div>","null","html-keyboard-response","168","300788","0.0-6.0-0.81","JOSC","2","m","rechts","24","","fixation","","","",""
"879","img/30_90.png","74","image-keyboard-response","169","301669","0.0-6.0-1.81","JOSC","2","m","rechts","24","","","object","j","30","true"
"null","<div style=""font-size:60px;"">+</div>","null","html-keyboard-response","170","302120","0.0-6.0-0.82","JOSC","2","m","rechts","24","","fixation","","","",""
"1010","img/150_270.png","74","image-keyboard-response","171","303131","0.0-6.0-1.82","JOSC","2","m","rechts","24","","","object","j","150","true"
"null","<div style=""font-size:60px;"">+</div>","null","html-keyboard-response","172","303483","0.0-6.0-0.83","JOSC","2","m","rechts","24","","fixation","","","",""
"913","img/60_210.png","70","image-keyboard-response","173","304397","0.0-6.0-1.83","JOSC","2","m","rechts","24","","","object","f","60","true"
"null","<div style=""font-size:60px;"">+</div>","null","html-keyboard-response","174","304699","0.0-6.0-0.84","JOSC","2","m","rechts","24","","fixation","","","",""
"801","img/60_30.png","70","image-keyboard-response","175","305502","0.0-6.0-1.84","JOSC","2","m","rechts","24","","","object","f","60","true"
"null","<div style=""font-size:60px;"">+</div>","null","html-keyboard-response","176","306003","0.0-6.0-0.85","JOSC","2","m","rechts","24","","fixation","","","",""
"1068","img/0_60.png","74","image-keyboard-response","177","307072","0.0-6.0-1.85","JOSC","2","m","rechts","24","","","object","j","0","true"
"null","<div style=""font-size:60px;"">+</div>","null","html-keyboard-response","178","307424","0.0-6.0-0.86","JOSC","2","m","rechts","24","","fixation","","","",""
"1469","img/90_150.png","74","image-keyboard-response","179","308893","0.0-6.0-1.86","JOSC","2","m","rechts","24","","","object","j","90","true"
"null","<div style=""font-size:60px;"">+</div>","null","html-keyboard-response","180","309195","0.0-6.0-0.87","JOSC","2","m","rechts","24","","fixation","","","",""
"821","img/30_300.png","70","image-keyboard-response","181","310016","0.0-6.0-1.87","JOSC","2","m","rechts","24","","","object","f","30","true"
"null","<div style=""font-size:60px;"">+</div>","null","html-keyboard-response","182","310518","0.0-6.0-0.88","JOSC","2","m","rechts","24","","fixation","","","",""
"879","img/60_180.png","70","image-keyboard-response","183","311398","0.0-6.0-1.88","JOSC","2","m","rechts","24","","","object","f","60","true"
"null","<div style=""font-size:60px;"">+</div>","null","html-keyboard-response","184","311850","0.0-6.0-0.89","JOSC","2","m","rechts","24","","fixation","","","",""
"703","img/120_330.png","74","image-keyboard-response","185","312553","0.0-6.0-1.89","JOSC","2","m","rechts","24","","","object","j","120","true"
"null","<div style=""font-size:60px;"">+</div>","null","html-keyboard-response","186","312905","0.0-6.0-0.90","JOSC","2","m","rechts","24","","fixation","","","",""
"882","img/0_90.png","74","image-keyboard-response","187","313787","0.0-6.0-1.90","JOSC","2","m","rechts","24","","","object","j","0","true"
"null","<div style=""font-size:60px;"">+</div>","null","html-keyboard-response","188","314289","0.0-6.0-0.91","JOSC","2","m","rechts","24","","fixation","","","",""
"971","img/120_210.png","70","image-keyboard-response","189","315260","0.0-6.0-1.91","JOSC","2","m","rechts","24","","","object","f","120","true"
"null","<div style=""font-size:60px;"">+</div>","null","html-keyboard-response","190","315762","0.0-6.0-0.92","JOSC","2","m","rechts","24","","fixation","","","",""
"673","img/150_300.png","74","image-keyboard-response","191","316436","0.0-6.0-1.92","JOSC","2","m","rechts","24","","","object","j","150","true"
"null","<div style=""font-size:60px;"">+</div>","null","html-keyboard-response","192","316837","0.0-6.0-0.93","JOSC","2","m","rechts","24","","fixation","","","",""
"1107","img/120_270.png","74","image-keyboard-response","193","317945","0.0-6.0-1.93","JOSC","2","m","rechts","24","","","object","j","120","true"
"null","<div style=""font-size:60px;"">+</div>","null","html-keyboard-response","194","318346","0.0-6.0-0.94","JOSC","2","m","rechts","24","","fixation","","","",""
"972","img/150_90.png","70","image-keyboard-response","195","319318","0.0-6.0-1.94","JOSC","2","m","rechts","24","","","object","f","150","true"
"null","<div style=""font-size:60px;"">+</div>","null","html-keyboard-response","196","319769","0.0-6.0-0.95","JOSC","2","m","rechts","24","","fixation","","","",""
"733","img/150_240.png","74","image-keyboard-response","197","320504","0.0-6.0-1.95","JOSC","2","m","rechts","24","","","object","j","150","true"
"null","<div style=""font-size:60px;"">+</div>","null","html-keyboard-response","198","320804","0.0-6.0-0.96","JOSC","2","m","rechts","24","","fixation","","","",""
"1011","img/60_150.png","74","image-keyboard-response","199","321817","0.0-6.0-1.96","JOSC","2","m","rechts","24","","","object","j","60","true"
"null","<div style=""font-size:60px;"">+</div>","null","html-keyboard-response","200","322218","0.0-6.0-0.97","JOSC","2","m","rechts","24","","fixation","","","",""
"693","img/0_330.png","70","image-keyboard-response","201","322913","0.0-6.0-1.97","JOSC","2","m","rechts","24","","","object","f","0","true"
"null","<div style=""font-size:60px;"">+</div>","null","html-keyboard-response","202","323214","0.0-6.0-0.98","JOSC","2","m","rechts","24","","fixation","","","",""
"1052","img/90_240.png","70","image-keyboard-response","203","324268","0.0-6.0-1.98","JOSC","2","m","rechts","24","","","object","f","90","true"
"null","<div style=""font-size:60px;"">+</div>","null","html-keyboard-response","204","324619","0.0-6.0-0.99","JOSC","2","m","rechts","24","","fixation","","","",""
"1814","img/150_120.png","70","image-keyboard-response","205","326434","0.0-6.0-1.99","JOSC","2","m","rechts","24","","","object","f","150","true"
"null","<div style=""font-size:60px;"">+</div>","null","html-keyboard-response","206","326886","0.0-6.0-0.100","JOSC","2","m","rechts","24","","fixation","","","",""
"1476","img/L120_180.png","74","image-keyboard-response","207","328363","0.0-6.0-1.100","JOSC","2","m","rechts","24","","","object","j","120","true"
"null","<div style=""font-size:60px;"">+</div>","null","html-keyboard-response","208","328815","0.0-6.0-0.101","JOSC","2","m","rechts","24","","fixation","","","",""
"759","img/60_330.png","74","image-keyboard-response","209","329575","0.0-6.0-1.101","JOSC","2","m","rechts","24","","","object","j","60","true"
"null","<div style=""font-size:60px;"">+</div>","null","html-keyboard-response","210","330027","0.0-6.0-0.102","JOSC","2","m","rechts","24","","fixation","","","",""
"683","img/0_120.png","74","image-keyboard-response","211","330710","0.0-6.0-1.102","JOSC","2","m","rechts","24","","","object","j","0","true"
"null","<div style=""font-size:60px;"">+</div>","null","html-keyboard-response","212","331112","0.0-6.0-0.103","JOSC","2","m","rechts","24","","fixation","","","",""
"1013","img/L90_180.png","74","image-keyboard-response","213","332125","0.0-6.0-1.103","JOSC","2","m","rechts","24","","","object","j","90","true"
"null","<div style=""font-size:60px;"">+</div>","null","html-keyboard-response","214","332427","0.0-6.0-0.104","JOSC","2","m","rechts","24","","fixation","","","",""
"870","img/30_240.png","74","image-keyboard-response","215","333298","0.0-6.0-1.104","JOSC","2","m","rechts","24","","","object","f","30","false"
"null","<div style=""font-size:60px;"">+</div>","null","html-keyboard-response","216","333599","0.0-6.0-0.105","JOSC","2","m","rechts","24","","fixation","","","",""
"1319","img/150_180.png","70","image-keyboard-response","217","334919","0.0-6.0-1.105","JOSC","2","m","rechts","24","","","object","f","150","true"
"null","<div style=""font-size:60px;"">+</div>","null","html-keyboard-response","218","335421","0.0-6.0-0.106","JOSC","2","m","rechts","24","","fixation","","","",""
"858","img/150_300.png","74","image-keyboard-response","219","336280","0.0-6.0-1.106","JOSC","2","m","rechts","24","","","object","j","150","true"
"null","<div style=""font-size:60px;"">+</div>","null","html-keyboard-response","220","336631","0.0-6.0-0.107","JOSC","2","m","rechts","24","","fixation","","","",""
"859","img/L120_180.png","74","image-keyboard-response","221","337491","0.0-6.0-1.107","JOSC","2","m","rechts","24","","","object","j","120","true"
"null","<div style=""font-size:60px;"">+</div>","null","html-keyboard-response","222","337943","0.0-6.0-0.108","JOSC","2","m","rechts","24","","fixation","","","",""
"775","img/0_120.png","74","image-keyboard-response","223","338718","0.0-6.0-1.108","JOSC","2","m","rechts","24","","","object","j","0","true"
"null","<div style=""font-size:60px;"">+</div>","null","html-keyboard-response","224","339120","0.0-6.0-0.109","JOSC","2","m","rechts","24","","fixation","","","",""
"1460","img/60_90.png","74","image-keyboard-response","225","340581","0.0-6.0-1.109","JOSC","2","m","rechts","24","","","object","j","60","true"
"null","<div style=""font-size:60px;"">+</div>","null","html-keyboard-response","226","340883","0.0-6.0-0.110","JOSC","2","m","rechts","24","","fixation","","","",""
"814","img/0_30.png","74","image-keyboard-response","227","341698","0.0-6.0-1.110","JOSC","2","m","rechts","24","","","object","j","0","true"
"null","<div style=""font-size:60px;"">+</div>","null","html-keyboard-response","228","342050","0.0-6.0-0.111","JOSC","2","m","rechts","24","","fixation","","","",""
"1365","img/150_270.png","74","image-keyboard-response","229","343415","0.0-6.0-1.111","JOSC","2","m","rechts","24","","","object","j","150","true"
"null","<div style=""font-size:60px;"">+</div>","null","html-keyboard-response","230","343817","0.0-6.0-0.112","JOSC","2","m","rechts","24","","fixation","","","",""
"776","img/150_240.png","74","image-keyboard-response","231","344594","0.0-6.0-1.112","JOSC","2","m","rechts","24","","","object","j","150","true"
"null","<div style=""font-size:60px;"">+</div>","null","html-keyboard-response","232","345046","0.0-6.0-0.113","JOSC","2","m","rechts","24","","fixation","","","",""
"867","img/150_120.png","70","image-keyboard-response","233","345914","0.0-6.0-1.113","JOSC","2","m","rechts","24","","","object","f","150","true"
"null","<div style=""font-size:60px;"">+</div>","null","html-keyboard-response","234","346265","0.0-6.0-0.114","JOSC","2","m","rechts","24","","fixation","","","",""
"1474","img/120_150.png","74","image-keyboard-response","235","347740","0.0-6.0-1.114","JOSC","2","m","rechts","24","","","object","j","120","true"
"null","<div style=""font-size:60px;"">+</div>","null","html-keyboard-response","236","348141","0.0-6.0-0.115","JOSC","2","m","rechts","24","","fixation","","","",""
"729","img/90_60.png","70","image-keyboard-response","237","348871","0.0-6.0-1.115","JOSC","2","m","rechts","24","","","object","f","90","true"
"null","<div style=""font-size:60px;"">+</div>","null","html-keyboard-response","238","349322","0.0-6.0-0.116","JOSC","2","m","rechts","24","","fixation","","","",""
"914","img/90_180.png","70","image-keyboard-response","239","350237","0.0-6.0-1.116","JOSC","2","m","rechts","24","","","object","f","90","true"
"null","<div style=""font-size:60px;"">+</div>","null","html-keyboard-response","240","350538","0.0-6.0-0.117","JOSC","2","m","rechts","24","","fixation","","","",""
"789","img/0_210.png","70","image-keyboard-response","241","351329","0.0-6.0-1.117","JOSC","2","m","rechts","24","","","object","f","0","true"
"null","<div style=""font-size:60px;"">+</div>","null","html-keyboard-response","242","351780","0.0-6.0-0.118","JOSC","2","m","rechts","24","","fixation","","","",""
"1527","img/150_90.png","70","image-keyboard-response","243","353309","0.0-6.0-1.118","JOSC","2","m","rechts","24","","","object","f","150","true"
"null","<div style=""font-size:60px;"">+</div>","null","html-keyboard-response","244","353610","0.0-6.0-0.119","JOSC","2","m","rechts","24","","fixation","","","",""
"1446","img/120_90.png","70","image-keyboard-response","245","355058","0.0-6.0-1.119","JOSC","2","m","rechts","24","","","object","f","120","true"
"null","<div style=""font-size:60px;"">+</div>","null","html-keyboard-response","246","355559","0.0-6.0-0.120","JOSC","2","m","rechts","24","","fixation","","","",""
"1354","img/L30_180.png","74","image-keyboard-response","247","356915","0.0-6.0-1.120","JOSC","2","m","rechts","24","","","object","j","30","true"
"null","<div style=""font-size:60px;"">+</div>","null","html-keyboard-response","248","357367","0.0-6.0-0.121","JOSC","2","m","rechts","24","","fixation","","","",""
"1019","img/120_210.png","70","image-keyboard-response","249","358386","0.0-6.0-1.121","JOSC","2","m","rechts","24","","","object","f","120","true"
"null","<div style=""font-size:60px;"">+</div>","null","html-keyboard-response","250","358738","0.0-6.0-0.122","JOSC","2","m","rechts","24","","fixation","","","",""
"1093","img/90_120.png","74","image-keyboard-response","251","359832","0.0-6.0-1.122","JOSC","2","m","rechts","24","","","object","j","90","true"
"null","<div style=""font-size:60px;"">+</div>","null","html-keyboard-response","252","360234","0.0-6.0-0.123","JOSC","2","m","rechts","24","","fixation","","","",""
"1513","img/30_300.png","70","image-keyboard-response","253","361748","0.0-6.0-1.123","JOSC","2","m","rechts","24","","","object","f","30","true"
"null","<div style=""font-size:60px;"">+</div>","null","html-keyboard-response","254","362100","0.0-6.0-0.124","JOSC","2","m","rechts","24","","fixation","","","",""
"1435","img/L60_180.png","74","image-keyboard-response","255","363535","0.0-6.0-1.124","JOSC","2","m","rechts","24","","","object","j","60","true"
"null","<div style=""font-size:60px;"">+</div>","null","html-keyboard-response","256","364037","0.0-6.0-0.125","JOSC","2","m","rechts","24","","fixation","","","",""
"879","img/30_90.png","74","image-keyboard-response","257","364917","0.0-6.0-1.125","JOSC","2","m","rechts","24","","","object","j","30","true"
"null","<div style=""font-size:60px;"">+</div>","null","html-keyboard-response","258","365218","0.0-6.0-0.126","JOSC","2","m","rechts","24","","fixation","","","",""
"828","img/0_300.png","70","image-keyboard-response","259","366046","0.0-6.0-1.126","JOSC","2","m","rechts","24","","","object","f","0","true"
"null","<div style=""font-size:60px;"">+</div>","null","html-keyboard-response","260","366348","0.0-6.0-0.127","JOSC","2","m","rechts","24","","fixation","","","",""
"1394","img/90_240.png","70","image-keyboard-response","261","367742","0.0-6.0-1.127","JOSC","2","m","rechts","24","","","object","f","90","true"
"null","<div style=""font-size:60px;"">+</div>","null","html-keyboard-response","262","368144","0.0-6.0-0.128","JOSC","2","m","rechts","24","","fixation","","","",""
"799","img/0_150.png","74","image-keyboard-response","263","368944","0.0-6.0-1.128","JOSC","2","m","rechts","24","","","object","j","0","true"
"null","<div style=""font-size:60px;"">+</div>","null","html-keyboard-response","264","369396","0.0-6.0-0.129","JOSC","2","m","rechts","24","","fixation","","","",""
"1261","img/60_180.png","70","image-keyboard-response","265","370657","0.0-6.0-1.129","JOSC","2","m","rechts","24","","","object","f","60","true"
"null","<div style=""font-size:60px;"">+</div>","null","html-keyboard-response","266","371109","0.0-6.0-0.130","JOSC","2","m","rechts","24","","fixation","","","",""
"830","img/L90_180.png","74","image-keyboard-response","267","371940","0.0-6.0-1.130","JOSC","2","m","rechts","24","","","object","j","90","true"
"null","<div style=""font-size:60px;"">+</div>","null","html-keyboard-response","268","372392","0.0-6.0-0.131","JOSC","2","m","rechts","24","","fixation","","","",""
"789","img/30_120.png","74","image-keyboard-response","269","373182","0.0-6.0-1.131","JOSC","2","m","rechts","24","","","object","j","30","true"
"null","<div style=""font-size:60px;"">+</div>","null","html-keyboard-response","270","373683","0.0-6.0-0.132","JOSC","2","m","rechts","24","","fixation","","","",""
"894","img/90_210.png","70","image-keyboard-response","271","374578","0.0-6.0-1.132","JOSC","2","m","rechts","24","","","object","f","90","true"
"null","<div style=""font-size:60px;"">+</div>","null","html-keyboard-response","272","374880","0.0-6.0-0.133","JOSC","2","m","rechts","24","","fixation","","","",""
"851","img/60_330.png","74","image-keyboard-response","273","375732","0.0-6.0-1.133","JOSC","2","m","rechts","24","","","object","j","60","true"
"null","<div style=""font-size:60px;"">+</div>","null","html-keyboard-response","274","376234","0.0-6.0-0.134","JOSC","2","m","rechts","24","","fixation","","","",""
"700","img/60_30.png","70","image-keyboard-response","275","376935","0.0-6.0-1.134","JOSC","2","m","rechts","24","","","object","f","60","true"
"null","<div style=""font-size:60px;"">+</div>","null","html-keyboard-response","276","377387","0.0-6.0-0.135","JOSC","2","m","rechts","24","","fixation","","","",""
"929","img/30_180.png","70","image-keyboard-response","277","378317","0.0-6.0-1.135","JOSC","2","m","rechts","24","","","object","f","30","true"
"null","<div style=""font-size:60px;"">+</div>","null","html-keyboard-response","278","378668","0.0-6.0-0.136","JOSC","2","m","rechts","24","","fixation","","","",""
"1294","img/30_60.png","74","image-keyboard-response","279","379963","0.0-6.0-1.136","JOSC","2","m","rechts","24","","","object","j","30","true"
"null","<div style=""font-size:60px;"">+</div>","null","html-keyboard-response","280","380315","0.0-6.0-0.137","JOSC","2","m","rechts","24","","fixation","","","",""
"1072","img/60_150.png","74","image-keyboard-response","281","381387","0.0-6.0-1.137","JOSC","2","m","rechts","24","","","object","j","60","true"
"null","<div style=""font-size:60px;"">+</div>","null","html-keyboard-response","282","381839","0.0-6.0-0.138","JOSC","2","m","rechts","24","","fixation","","","",""
"785","img/120_330.png","74","image-keyboard-response","283","382625","0.0-6.0-1.138","JOSC","2","m","rechts","24","","","object","j","120","true"
"null","<div style=""font-size:60px;"">+</div>","null","html-keyboard-response","284","383027","0.0-6.0-0.139","JOSC","2","m","rechts","24","","fixation","","","",""
"817","img/60_210.png","70","image-keyboard-response","285","383844","0.0-6.0-1.139","JOSC","2","m","rechts","24","","","object","f","60","true"
"null","<div style=""font-size:60px;"">+</div>","null","html-keyboard-response","286","384345","0.0-6.0-0.140","JOSC","2","m","rechts","24","","fixation","","","",""
"831","img/L150_180.png","74","image-keyboard-response","287","385177","0.0-6.0-1.140","JOSC","2","m","rechts","24","","","object","j","150","true"
"null","<div style=""font-size:60px;"">+</div>","null","html-keyboard-response","288","385579","0.0-6.0-0.141","JOSC","2","m","rechts","24","","fixation","","","",""
"890","img/0_90.png","74","image-keyboard-response","289","386469","0.0-6.0-1.141","JOSC","2","m","rechts","24","","","object","j","0","true"
"null","<div style=""font-size:60px;"">+</div>","null","html-keyboard-response","290","386771","0.0-6.0-0.142","JOSC","2","m","rechts","24","","fixation","","","",""
"1006","img/90_300.png","74","image-keyboard-response","291","387777","0.0-6.0-1.142","JOSC","2","m","rechts","24","","","object","j","90","true"
"null","<div style=""font-size:60px;"">+</div>","null","html-keyboard-response","292","388128","0.0-6.0-0.143","JOSC","2","m","rechts","24","","fixation","","","",""
"1456","img/120_270.png","74","image-keyboard-response","293","389585","0.0-6.0-1.143","JOSC","2","m","rechts","24","","","object","j","120","true"
"null","<div style=""font-size:60px;"">+</div>","null","html-keyboard-response","294","389936","0.0-6.0-0.144","JOSC","2","m","rechts","24","","fixation","","","",""
"1564","img/90_150.png","74","image-keyboard-response","295","391501","0.0-6.0-1.144","JOSC","2","m","rechts","24","","","object","j","90","true"
"null","<div style=""font-size:60px;"">+</div>","null","html-keyboard-response","296","391853","0.0-6.0-0.145","JOSC","2","m","rechts","24","","fixation","","","",""
"1330","img/120_180.png","70","image-keyboard-response","297","393184","0.0-6.0-1.145","JOSC","2","m","rechts","24","","","object","f","120","true"
"null","<div style=""font-size:60px;"">+</div>","null","html-keyboard-response","298","393486","0.0-6.0-0.146","JOSC","2","m","rechts","24","","fixation","","","",""
"772","img/0_60.png","74","image-keyboard-response","299","394259","0.0-6.0-1.146","JOSC","2","m","rechts","24","","","object","j","0","true"
"null","<div style=""font-size:60px;"">+</div>","null","html-keyboard-response","300","394661","0.0-6.0-0.147","JOSC","2","m","rechts","24","","fixation","","","",""
"662","img/90_330.png","74","image-keyboard-response","301","395324","0.0-6.0-1.147","JOSC","2","m","rechts","24","","","object","j","90","true"
"null","<div style=""font-size:60px;"">+</div>","null","html-keyboard-response","302","395626","0.0-6.0-0.148","JOSC","2","m","rechts","24","","fixation","","","",""
"697","img/0_270.png","70","image-keyboard-response","303","396324","0.0-6.0-1.148","JOSC","2","m","rechts","24","","","object","f","0","true"
"null","<div style=""font-size:60px;"">+</div>","null","html-keyboard-response","304","396626","0.0-6.0-0.149","JOSC","2","m","rechts","24","","fixation","","","",""
"573","img/0_240.png","70","image-keyboard-response","305","397200","0.0-6.0-1.149","JOSC","2","m","rechts","24","","","object","f","0","true"
"null","<div style=""font-size:60px;"">+</div>","null","html-keyboard-response","306","397702","0.0-6.0-0.150","JOSC","2","m","rechts","24","","fixation","","","",""
"881","img/90_30.png","70","image-keyboard-response","307","398583","0.0-6.0-1.150","JOSC","2","m","rechts","24","","","object","f","90","true"
"null","<div style=""font-size:60px;"">+</div>","null","html-keyboard-response","308","399034","0.0-6.0-0.151","JOSC","2","m","rechts","24","","fixation","","","",""
"692","img/120_30.png","70","image-keyboard-response","309","399726","0.0-6.0-1.151","JOSC","2","m","rechts","24","","","object","f","120","true"
"null","<div style=""font-size:60px;"">+</div>","null","html-keyboard-response","310","400028","0.0-6.0-0.152","JOSC","2","m","rechts","24","","fixation","","","",""
"836","img/0_330.png","70","image-keyboard-response","311","400865","0.0-6.0-1.152","JOSC","2","m","rechts","24","","","object","f","0","true"
"null","<div style=""font-size:60px;"">+</div>","null","html-keyboard-response","312","401166","0.0-6.0-0.153","JOSC","2","m","rechts","24","","fixation","","","",""
"1402","img/60_270.png","70","image-keyboard-response","313","402568","0.0-6.0-1.153","JOSC","2","m","rechts","24","","","object","f","60","true"
"null","<div style=""font-size:60px;"">+</div>","null","html-keyboard-response","314","403019","0.0-6.0-0.154","JOSC","2","m","rechts","24","","fixation","","","",""
"828","img/30_270.png","70","image-keyboard-response","315","403848","0.0-6.0-1.154","JOSC","2","m","rechts","24","","","object","f","30","true"
"null","<div style=""font-size:60px;"">+</div>","null","html-keyboard-response","316","404149","0.0-6.0-0.155","JOSC","2","m","rechts","24","","fixation","","","",""
"1156","img/150_60.png","70","image-keyboard-response","317","405306","0.0-6.0-1.155","JOSC","2","m","rechts","24","","","object","f","150","true"
"null","<div style=""font-size:60px;"">+</div>","null","html-keyboard-response","318","405707","0.0-6.0-0.156","JOSC","2","m","rechts","24","","fixation","","","",""
"747","img/0_300.png","70","image-keyboard-response","319","406456","0.0-6.0-1.156","JOSC","2","m","rechts","24","","","object","f","0","true"
"null","<div style=""font-size:60px;"">+</div>","null","html-keyboard-response","320","406907","0.0-6.0-0.157","JOSC","2","m","rechts","24","","fixation","","","",""
"989","img/150_90.png","70","image-keyboard-response","321","407898","0.0-6.0-1.157","JOSC","2","m","rechts","24","","","object","f","150","true"
"null","<div style=""font-size:60px;"">+</div>","null","html-keyboard-response","322","408299","0.0-6.0-0.158","JOSC","2","m","rechts","24","","fixation","","","",""
"842","img/0_120.png","74","image-keyboard-response","323","409142","0.0-6.0-1.158","JOSC","2","m","rechts","24","","","object","j","0","true"
"null","<div style=""font-size:60px;"">+</div>","null","html-keyboard-response","324","409643","0.0-6.0-0.159","JOSC","2","m","rechts","24","","fixation","","","",""
"1211","img/60_180.png","70","image-keyboard-response","325","410856","0.0-6.0-1.159","JOSC","2","m","rechts","24","","","object","f","60","true"
"null","<div style=""font-size:60px;"">+</div>","null","html-keyboard-response","326","411157","0.0-6.0-0.160","JOSC","2","m","rechts","24","","fixation","","","",""
"963","img/0_60.png","74","image-keyboard-response","327","412121","0.0-6.0-1.160","JOSC","2","m","rechts","24","","","object","j","0","true"
"null","<div style=""font-size:60px;"">+</div>","null","html-keyboard-response","328","412473","0.0-6.0-0.161","JOSC","2","m","rechts","24","","fixation","","","",""
"1203","img/120_90.png","74","image-keyboard-response","329","413677","0.0-6.0-1.161","JOSC","2","m","rechts","24","","","object","f","120","false"
"null","<div style=""font-size:60px;"">+</div>","null","html-keyboard-response","330","414129","0.0-6.0-0.162","JOSC","2","m","rechts","24","","fixation","","","",""
"774","img/30_270.png","70","image-keyboard-response","331","414904","0.0-6.0-1.162","JOSC","2","m","rechts","24","","","object","f","30","true"
"null","<div style=""font-size:60px;"">+</div>","null","html-keyboard-response","332","415256","0.0-6.0-0.163","JOSC","2","m","rechts","24","","fixation","","","",""
"703","img/90_330.png","74","image-keyboard-response","333","415960","0.0-6.0-1.163","JOSC","2","m","rechts","24","","","object","j","90","true"
"null","<div style=""font-size:60px;"">+</div>","null","html-keyboard-response","334","416312","0.0-6.0-0.164","JOSC","2","m","rechts","24","","fixation","","","",""
"841","img/150_60.png","70","image-keyboard-response","335","417153","0.0-6.0-1.164","JOSC","2","m","rechts","24","","","object","f","150","true"
"null","<div style=""font-size:60px;"">+</div>","null","html-keyboard-response","336","417505","0.0-6.0-0.165","JOSC","2","m","rechts","24","","fixation","","","",""
"703","img/120_330.png","74","image-keyboard-response","337","418209","0.0-6.0-1.165","JOSC","2","m","rechts","24","","","object","j","120","true"
"null","<div style=""font-size:60px;"">+</div>","null","html-keyboard-response","338","418511","0.0-6.0-0.166","JOSC","2","m","rechts","24","","fixation","","","",""
"1006","img/60_90.png","74","image-keyboard-response","339","419517","0.0-6.0-1.166","JOSC","2","m","rechts","24","","","object","j","60","true"
"null","<div style=""font-size:60px;"">+</div>","null","html-keyboard-response","340","419919","0.0-6.0-0.167","JOSC","2","m","rechts","24","","fixation","","","",""
"1246","img/150_300.png","74","image-keyboard-response","341","421166","0.0-6.0-1.167","JOSC","2","m","rechts","24","","","object","j","150","true"
"null","<div style=""font-size:60px;"">+</div>","null","html-keyboard-response","342","421667","0.0-6.0-0.168","JOSC","2","m","rechts","24","","fixation","","","",""
"992","img/150_180.png","70","image-keyboard-response","343","422660","0.0-6.0-1.168","JOSC","2","m","rechts","24","","","object","f","150","true"
"null","<div style=""font-size:60px;"">+</div>","null","html-keyboard-response","344","423011","0.0-6.0-0.169","JOSC","2","m","rechts","24","","fixation","","","",""
"966","img/120_30.png","70","image-keyboard-response","345","423979","0.0-6.0-1.169","JOSC","2","m","rechts","24","","","object","f","120","true"
"null","<div style=""font-size:60px;"">+</div>","null","html-keyboard-response","346","424430","0.0-6.0-0.170","JOSC","2","m","rechts","24","","fixation","","","",""
"893","img/90_60.png","70","image-keyboard-response","347","425324","0.0-6.0-1.170","JOSC","2","m","rechts","24","","","object","f","90","true"
"null","<div style=""font-size:60px;"">+</div>","null","html-keyboard-response","348","425775","0.0-6.0-0.171","JOSC","2","m","rechts","24","","fixation","","","",""
"1138","img/90_120.png","74","image-keyboard-response","349","426915","0.0-6.0-1.171","JOSC","2","m","rechts","24","","","object","j","90","true"
"null","<div style=""font-size:60px;"">+</div>","null","html-keyboard-response","350","427316","0.0-6.0-0.172","JOSC","2","m","rechts","24","","fixation","","","",""
"709","img/0_270.png","70","image-keyboard-response","351","428026","0.0-6.0-1.172","JOSC","2","m","rechts","24","","","object","f","0","true"
"null","<div style=""font-size:60px;"">+</div>","null","html-keyboard-response","352","428528","0.0-6.0-0.173","JOSC","2","m","rechts","24","","fixation","","","",""
"927","img/120_270.png","74","image-keyboard-response","353","429456","0.0-6.0-1.173","JOSC","2","m","rechts","24","","","object","j","120","true"
"null","<div style=""font-size:60px;"">+</div>","null","html-keyboard-response","354","429958","0.0-6.0-0.174","JOSC","2","m","rechts","24","","fixation","","","",""
"833","img/30_240.png","70","image-keyboard-response","355","430792","0.0-6.0-1.174","JOSC","2","m","rechts","24","","","object","f","30","true"
"null","<div style=""font-size:60px;"">+</div>","null","html-keyboard-response","356","431294","0.0-6.0-0.175","JOSC","2","m","rechts","24","","fixation","","","",""
"1072","img/90_210.png","70","image-keyboard-response","357","432368","0.0-6.0-1.175","JOSC","2","m","rechts","24","","","object","f","90","true"
"null","<div style=""font-size:60px;"">+</div>","null","html-keyboard-response","358","432669","0.0-6.0-0.176","JOSC","2","m","rechts","24","","fixation","","","",""
"1166","img/90_240.png","74","image-keyboard-response","359","433836","0.0-6.0-1.176","JOSC","2","m","rechts","24","","","object","f","90","false"
"null","<div style=""font-size:60px;"">+</div>","null","html-keyboard-response","360","434188","0.0-6.0-0.177","JOSC","2","m","rechts","24","","fixation","","","",""
"772","img/0_210.png","70","image-keyboard-response","361","434960","0.0-6.0-1.177","JOSC","2","m","rechts","24","","","object","f","0","true"
"null","<div style=""font-size:60px;"">+</div>","null","html-keyboard-response","362","435362","0.0-6.0-0.178","JOSC","2","m","rechts","24","","fixation","","","",""
"1078","img/0_150.png","74","image-keyboard-response","363","436440","0.0-6.0-1.178","JOSC","2","m","rechts","24","","","object","j","0","true"
"null","<div style=""font-size:60px;"">+</div>","null","html-keyboard-response","364","436942","0.0-6.0-0.179","JOSC","2","m","rechts","24","","fixation","","","",""
"796","img/60_30.png","70","image-keyboard-response","365","437738","0.0-6.0-1.179","JOSC","2","m","rechts","24","","","object","f","60","true"
"null","<div style=""font-size:60px;"">+</div>","null","html-keyboard-response","366","438090","0.0-6.0-0.180","JOSC","2","m","rechts","24","","fixation","","","",""
"577","img/90_30.png","70","image-keyboard-response","367","438667","0.0-6.0-1.180","JOSC","2","m","rechts","24","","","object","f","90","true"
"null","<div style=""font-size:60px;"">+</div>","null","html-keyboard-response","368","439069","0.0-6.0-0.181","JOSC","2","m","rechts","24","","fixation","","","",""
"965","img/120_180.png","70","image-keyboard-response","369","440034","0.0-6.0-1.181","JOSC","2","m","rechts","24","","","object","f","120","true"
"null","<div style=""font-size:60px;"">+</div>","null","html-keyboard-response","370","440535","0.0-6.0-0.182","JOSC","2","m","rechts","24","","fixation","","","",""
"867","img/90_150.png","74","image-keyboard-response","371","441403","0.0-6.0-1.182","JOSC","2","m","rechts","24","","","object","j","90","true"
"null","<div style=""font-size:60px;"">+</div>","null","html-keyboard-response","372","441805","0.0-6.0-0.183","JOSC","2","m","rechts","24","","fixation","","","",""
"923","img/60_210.png","74","image-keyboard-response","373","442728","0.0-6.0-1.183","JOSC","2","m","rechts","24","","","object","f","60","false"
"null","<div style=""font-size:60px;"">+</div>","null","html-keyboard-response","374","443130","0.0-6.0-0.184","JOSC","2","m","rechts","24","","fixation","","","",""
"753","img/60_330.png","74","image-keyboard-response","375","443883","0.0-6.0-1.184","JOSC","2","m","rechts","24","","","object","j","60","true"
"null","<div style=""font-size:60px;"">+</div>","null","html-keyboard-response","376","444234","0.0-6.0-0.185","JOSC","2","m","rechts","24","","fixation","","","",""
"1156","img/150_240.png","74","image-keyboard-response","377","445391","0.0-6.0-1.185","JOSC","2","m","rechts","24","","","object","j","150","true"
"null","<div style=""font-size:60px;"">+</div>","null","html-keyboard-response","378","445893","0.0-6.0-0.186","JOSC","2","m","rechts","24","","fixation","","","",""
"1095","img/150_120.png","70","image-keyboard-response","379","446989","0.0-6.0-1.186","JOSC","2","m","rechts","24","","","object","f","150","true"
"null","<div style=""font-size:60px;"">+</div>","null","html-keyboard-response","380","447341","0.0-6.0-0.187","JOSC","2","m","rechts","24","","fixation","","","",""
"1146","img/90_180.png","70","image-keyboard-response","381","448488","0.0-6.0-1.187","JOSC","2","m","rechts","24","","","object","f","90","true"
"null","<div style=""font-size:60px;"">+</div>","null","html-keyboard-response","382","448840","0.0-6.0-0.188","JOSC","2","m","rechts","24","","fixation","","","",""
"875","img/30_300.png","70","image-keyboard-response","383","449716","0.0-6.0-1.188","JOSC","2","m","rechts","24","","","object","f","30","true"
"null","<div style=""font-size:60px;"">+</div>","null","html-keyboard-response","384","450018","0.0-6.0-0.189","JOSC","2","m","rechts","24","","fixation","","","",""
"937","img/90_300.png","74","image-keyboard-response","385","450956","0.0-6.0-1.189","JOSC","2","m","rechts","24","","","object","j","90","true"
"null","<div style=""font-size:60px;"">+</div>","null","html-keyboard-response","386","451258","0.0-6.0-0.190","JOSC","2","m","rechts","24","","fixation","","","",""
"1073","img/L120_180.png","74","image-keyboard-response","387","452332","0.0-6.0-1.190","JOSC","2","m","rechts","24","","","object","j","120","true"
"null","<div style=""font-size:60px;"">+</div>","null","html-keyboard-response","388","452784","0.0-6.0-0.191","JOSC","2","m","rechts","24","","fixation","","","",""
"1068","img/120_210.png","70","image-keyboard-response","389","453852","0.0-6.0-1.191","JOSC","2","m","rechts","24","","","object","f","120","true"
"null","<div style=""font-size:60px;"">+</div>","null","html-keyboard-response","390","454254","0.0-6.0-0.192","JOSC","2","m","rechts","24","","fixation","","","",""
"990","img/30_180.png","70","image-keyboard-response","391","455245","0.0-6.0-1.192","JOSC","2","m","rechts","24","","","object","f","30","true"
"null","<div style=""font-size:60px;"">+</div>","null","html-keyboard-response","392","455547","0.0-6.0-0.193","JOSC","2","m","rechts","24","","fixation","","","",""
"1109","img/30_60.png","70","image-keyboard-response","393","456656","0.0-6.0-1.193","JOSC","2","m","rechts","24","","","object","j","30","false"
"null","<div style=""font-size:60px;"">+</div>","null","html-keyboard-response","394","457008","0.0-6.0-0.194","JOSC","2","m","rechts","24","","fixation","","","",""
"931","img/0_90.png","74","image-keyboard-response","395","457939","0.0-6.0-1.194","JOSC","2","m","rechts","24","","","object","j","0","true"
"null","<div style=""font-size:60px;"">+</div>","null","html-keyboard-response","396","458441","0.0-6.0-0.195","JOSC","2","m","rechts","24","","fixation","","","",""
"787","img/30_90.png","74","image-keyboard-response","397","459229","0.0-6.0-1.195","JOSC","2","m","rechts","24","","","object","j","30","true"
"null","<div style=""font-size:60px;"">+</div>","null","html-keyboard-response","398","459530","0.0-6.0-0.196","JOSC","2","m","rechts","24","","fixation","","","",""
"935","img/0_330.png","70","image-keyboard-response","399","460467","0.0-6.0-1.196","JOSC","2","m","rechts","24","","","object","f","0","true"
"null","<div style=""font-size:60px;"">+</div>","null","html-keyboard-response","400","460968","0.0-6.0-0.197","JOSC","2","m","rechts","24","","fixation","","","",""
"799","img/60_150.png","74","image-keyboard-response","401","461769","0.0-6.0-1.197","JOSC","2","m","rechts","24","","","object","j","60","true"
"null","<div style=""font-size:60px;"">+</div>","null","html-keyboard-response","402","462270","0.0-6.0-0.198","JOSC","2","m","rechts","24","","fixation","","","",""
"809","img/0_30.png","74","image-keyboard-response","403","463081","0.0-6.0-1.198","JOSC","2","m","rechts","24","","","object","j","0","true"
"null","<div style=""font-size:60px;"">+</div>","null","html-keyboard-response","404","463382","0.0-6.0-0.199","JOSC","2","m","rechts","24","","fixation","","","",""
"952","img/L60_180.png","74","image-keyboard-response","405","464336","0.0-6.0-1.199","JOSC","2","m","rechts","24","","","object","j","60","true"
"null","<div style=""font-size:60px;"">+</div>","null","html-keyboard-response","406","464837","0.0-6.0-0.200","JOSC","2","m","rechts","24","","fixation","","","",""
"974","img/60_270.png","70","image-keyboard-response","407","465812","0.0-6.0-1.200","JOSC","2","m","rechts","24","","","object","f","60","true"
"null","<div style=""font-size:60px;"">+</div>","null","html-keyboard-response","408","466114","0.0-6.0-0.201","JOSC","2","m","rechts","24","","fixation","","","",""
"1215","img/120_150.png","74","image-keyboard-response","409","467329","0.0-6.0-1.201","JOSC","2","m","rechts","24","","","object","j","120","true"
"null","<div style=""font-size:60px;"">+</div>","null","html-keyboard-response","410","467681","0.0-6.0-0.202","JOSC","2","m","rechts","24","","fixation","","","",""
"1529","img/150_270.png","74","image-keyboard-response","411","469211","0.0-6.0-1.202","JOSC","2","m","rechts","24","","","object","j","150","true"
"null","<div style=""font-size:60px;"">+</div>","null","html-keyboard-response","412","469563","0.0-6.0-0.203","JOSC","2","m","rechts","24","","fixation","","","",""
"1567","img/L150_180.png","74","image-keyboard-response","413","471131","0.0-6.0-1.203","JOSC","2","m","rechts","24","","","object","j","150","true"
"null","<div style=""font-size:60px;"">+</div>","null","html-keyboard-response","414","471532","0.0-6.0-0.204","JOSC","2","m","rechts","24","","fixation","","","",""
"1362","img/30_120.png","74","image-keyboard-response","415","472895","0.0-6.0-1.204","JOSC","2","m","rechts","24","","","object","j","30","true"
"null","<div style=""font-size:60px;"">+</div>","null","html-keyboard-response","416","473247","0.0-6.0-0.205","JOSC","2","m","rechts","24","","fixation","","","",""
"1175","img/L30_180.png","74","image-keyboard-response","417","474423","0.0-6.0-1.205","JOSC","2","m","rechts","24","","","object","j","30","true"
"null","<div style=""font-size:60px;"">+</div>","null","html-keyboard-response","418","474725","0.0-6.0-0.206","JOSC","2","m","rechts","24","","fixation","","","",""
"1182","img/L90_180.png","74","image-keyboard-response","419","475908","0.0-6.0-1.206","JOSC","2","m","rechts","24","","","object","j","90","true"
"null","<div style=""font-size:60px;"">+</div>","null","html-keyboard-response","420","476309","0.0-6.0-0.207","JOSC","2","m","rechts","24","","fixation","","","",""
"877","img/0_240.png","70","image-keyboard-response","421","477187","0.0-6.0-1.207","JOSC","2","m","rechts","24","","","object","f","0","true"
"13478","<p>Du hast in 94% der Versuche korrekt entschieden.</p><p>Deine durchschnittliche Reaktionszeit war  980ms.</p><p>Dr&uuml;cke eine beliebige Taste, um die Session zu beenden. Vielen Dank!</p>","76","html-keyboard-response","422","490667","0.0-7.0","JOSC","2","m","rechts","24","","","","","",""
