"rt","stimulus","key_press","trial_type","trial_index","time_elapsed","internal_node_id","subject","session","sex","handedness","age","responses","test_part","condition","correct_response","angle","correct"
"4525","<p>Mental Rotation Experiment.</p> <p>Dr&uuml;cke eine beliebige Taste, um anzufangen.</p>","70","html-keyboard-response","0","4531","0.0-0.0","JOSC","1","m","rechts","24","","","","","",""
"18468","","","survey-text","1","23000","0.0-1.0","JOSC","1","m","rechts","24","{""Q0"":""JOSC""}","","","","",""
"2136","","","survey-text","2","25137","0.0-2.0","JOSC","1","m","rechts","24","{""Q0"":""1""}","","","","",""
"5209","","","survey-multi-choice","3","30348","0.0-3.0","JOSC","1","m","rechts","24","{""Q0"":""m"",""Q1"":""rechts""}","","","","",""
"4591","","","survey-text","4","34940","0.0-4.0","JOSC","1","m","rechts","24","{""Q0"":""24""}","","","","",""
"225829","<p>Stell dir vor, dass du vor einem runden Tisch stehst, auf dem sich ein blauer Ball am Tischrand befindet. Entlang des Tischrands ist jeweils ein verschieden langer Pfeil. Nun bleibst du an deinem Platz vor dem Tisch und rotierst den Tisch entlang des Pfeils (gleiche Richtung und Länge). </p> <img src='img/30_180.png'></img> <br><p> Nachdem du diese (vorgestellte) Rotation durchgef&uuml;hrt hast, schau in Richtung der Tischmitte, und entscheide dann, ob der Ball links oder rechts von dir liegt.</p> <p>Dr&uuml;cke die <strong>'f'</strong>-Taste f&uuml;r links, die <strong>'j'</strong>-Taste f&uuml;r rechts.</p><br><p> Das Bild wird jeweils 1 Sekunde lang pr&auml;sentiert. Du hast 3 Sekunden Zeit eine Entscheidung zu treffen.</p>","74","html-keyboard-response","5","260771","0.0-5.0","JOSC","1","m","rechts","24","","","","","",""
"null","<div style=""font-size:60px;"">+</div>","null","html-keyboard-response","6","262075","0.0-6.0-0.0","JOSC","1","m","rechts","24","","fixation","","","",""
"1826","img/120_270.png","74","image-keyboard-response","7","263903","0.0-6.0-1.0","JOSC","1","m","rechts","24","","","object","j","120","true"
"null","<div style=""font-size:60px;"">+</div>","null","html-keyboard-response","8","264353","0.0-6.0-0.1","JOSC","1","m","rechts","24","","fixation","","","",""
"2011","img/60_90.png","74","image-keyboard-response","9","266366","0.0-6.0-1.1","JOSC","1","m","rechts","24","","","object","j","60","true"
"null","<div style=""font-size:60px;"">+</div>","null","html-keyboard-response","10","266867","0.0-6.0-0.2","JOSC","1","m","rechts","24","","fixation","","","",""
"1087","img/0_30.png","74","image-keyboard-response","11","267956","0.0-6.0-1.2","JOSC","1","m","rechts","24","","","object","j","0","true"
"null","<div style=""font-size:60px;"">+</div>","null","html-keyboard-response","12","268358","0.0-6.0-0.3","JOSC","1","m","rechts","24","","fixation","","","",""
"2469","img/L150_180.png","70","image-keyboard-response","13","270829","0.0-6.0-1.3","JOSC","1","m","rechts","24","","","object","j","150","false"
"null","<div style=""font-size:60px;"">+</div>","null","html-keyboard-response","14","271131","0.0-6.0-0.4","JOSC","1","m","rechts","24","","fixation","","","",""
"1992","img/150_180.png","70","image-keyboard-response","15","273125","0.0-6.0-1.4","JOSC","1","m","rechts","24","","","object","f","150","true"
"null","<div style=""font-size:60px;"">+</div>","null","html-keyboard-response","16","273476","0.0-6.0-0.5","JOSC","1","m","rechts","24","","fixation","","","",""
"1044","img/0_330.png","70","image-keyboard-response","17","274522","0.0-6.0-1.5","JOSC","1","m","rechts","24","","","object","f","0","true"
"null","<div style=""font-size:60px;"">+</div>","null","html-keyboard-response","18","275023","0.0-6.0-0.6","JOSC","1","m","rechts","24","","fixation","","","",""
"1181","img/120_150.png","74","image-keyboard-response","19","276205","0.0-6.0-1.6","JOSC","1","m","rechts","24","","","object","j","120","true"
"null","<div style=""font-size:60px;"">+</div>","null","html-keyboard-response","20","276607","0.0-6.0-0.7","JOSC","1","m","rechts","24","","fixation","","","",""
"954","img/0_300.png","70","image-keyboard-response","21","277562","0.0-6.0-1.7","JOSC","1","m","rechts","24","","","object","f","0","true"
"null","<div style=""font-size:60px;"">+</div>","null","html-keyboard-response","22","278064","0.0-6.0-0.8","JOSC","1","m","rechts","24","","fixation","","","",""
"1066","img/90_240.png","74","image-keyboard-response","23","279131","0.0-6.0-1.8","JOSC","1","m","rechts","24","","","object","f","90","false"
"null","<div style=""font-size:60px;"">+</div>","null","html-keyboard-response","24","279483","0.0-6.0-0.9","JOSC","1","m","rechts","24","","fixation","","","",""
"1725","img/30_180.png","70","image-keyboard-response","25","281210","0.0-6.0-1.9","JOSC","1","m","rechts","24","","","object","f","30","true"
"null","<div style=""font-size:60px;"">+</div>","null","html-keyboard-response","26","281711","0.0-6.0-0.10","JOSC","1","m","rechts","24","","fixation","","","",""
"1332","img/90_60.png","70","image-keyboard-response","27","283045","0.0-6.0-1.10","JOSC","1","m","rechts","24","","","object","f","90","true"
"null","<div style=""font-size:60px;"">+</div>","null","html-keyboard-response","28","283446","0.0-6.0-0.11","JOSC","1","m","rechts","24","","fixation","","","",""
"1228","img/0_210.png","70","image-keyboard-response","29","284675","0.0-6.0-1.11","JOSC","1","m","rechts","24","","","object","f","0","true"
"null","<div style=""font-size:60px;"">+</div>","null","html-keyboard-response","30","284977","0.0-6.0-0.12","JOSC","1","m","rechts","24","","fixation","","","",""
"1403","img/60_30.png","70","image-keyboard-response","31","286381","0.0-6.0-1.12","JOSC","1","m","rechts","24","","","object","f","60","true"
"null","<div style=""font-size:60px;"">+</div>","null","html-keyboard-response","32","286883","0.0-6.0-0.13","JOSC","1","m","rechts","24","","fixation","","","",""
"1022","img/120_30.png","70","image-keyboard-response","33","287906","0.0-6.0-1.13","JOSC","1","m","rechts","24","","","object","f","120","true"
"null","<div style=""font-size:60px;"">+</div>","null","html-keyboard-response","34","288308","0.0-6.0-0.14","JOSC","1","m","rechts","24","","fixation","","","",""
"912","img/0_270.png","70","image-keyboard-response","35","289221","0.0-6.0-1.14","JOSC","1","m","rechts","24","","","object","f","0","true"
"null","<div style=""font-size:60px;"">+</div>","null","html-keyboard-response","36","289573","0.0-6.0-0.15","JOSC","1","m","rechts","24","","fixation","","","",""
"1825","img/30_300.png","70","image-keyboard-response","37","291399","0.0-6.0-1.15","JOSC","1","m","rechts","24","","","object","f","30","true"
"null","<div style=""font-size:60px;"">+</div>","null","html-keyboard-response","38","291901","0.0-6.0-0.16","JOSC","1","m","rechts","24","","fixation","","","",""
"996","img/0_120.png","74","image-keyboard-response","39","292898","0.0-6.0-1.16","JOSC","1","m","rechts","24","","","object","j","0","true"
"null","<div style=""font-size:60px;"">+</div>","null","html-keyboard-response","40","293400","0.0-6.0-0.17","JOSC","1","m","rechts","24","","fixation","","","",""
"1522","img/90_150.png","74","image-keyboard-response","41","294923","0.0-6.0-1.17","JOSC","1","m","rechts","24","","","object","j","90","true"
"null","<div style=""font-size:60px;"">+</div>","null","html-keyboard-response","42","295275","0.0-6.0-0.18","JOSC","1","m","rechts","24","","fixation","","","",""
"2384","img/L60_180.png","74","image-keyboard-response","43","297660","0.0-6.0-1.18","JOSC","1","m","rechts","24","","","object","j","60","true"
"null","<div style=""font-size:60px;"">+</div>","null","html-keyboard-response","44","297962","0.0-6.0-0.19","JOSC","1","m","rechts","24","","fixation","","","",""
"966","img/0_150.png","74","image-keyboard-response","45","298929","0.0-6.0-1.19","JOSC","1","m","rechts","24","","","object","j","0","true"
"null","<div style=""font-size:60px;"">+</div>","null","html-keyboard-response","46","299281","0.0-6.0-0.20","JOSC","1","m","rechts","24","","fixation","","","",""
"940","img/90_210.png","70","image-keyboard-response","47","300222","0.0-6.0-1.20","JOSC","1","m","rechts","24","","","object","f","90","true"
"null","<div style=""font-size:60px;"">+</div>","null","html-keyboard-response","48","300524","0.0-6.0-0.21","JOSC","1","m","rechts","24","","fixation","","","",""
"1545","img/30_270.png","70","image-keyboard-response","49","302070","0.0-6.0-1.21","JOSC","1","m","rechts","24","","","object","f","30","true"
"null","<div style=""font-size:60px;"">+</div>","null","html-keyboard-response","50","302422","0.0-6.0-0.22","JOSC","1","m","rechts","24","","fixation","","","",""
"987","img/0_90.png","74","image-keyboard-response","51","303410","0.0-6.0-1.22","JOSC","1","m","rechts","24","","","object","j","0","true"
"null","<div style=""font-size:60px;"">+</div>","null","html-keyboard-response","52","303761","0.0-6.0-0.23","JOSC","1","m","rechts","24","","fixation","","","",""
"1352","img/L30_180.png","74","image-keyboard-response","53","305114","0.0-6.0-1.23","JOSC","1","m","rechts","24","","","object","j","30","true"
"null","<div style=""font-size:60px;"">+</div>","null","html-keyboard-response","54","305516","0.0-6.0-0.24","JOSC","1","m","rechts","24","","fixation","","","",""
"1404","img/30_60.png","74","image-keyboard-response","55","306921","0.0-6.0-1.24","JOSC","1","m","rechts","24","","","object","j","30","true"
"null","<div style=""font-size:60px;"">+</div>","null","html-keyboard-response","56","307373","0.0-6.0-0.25","JOSC","1","m","rechts","24","","fixation","","","",""
"1189","img/L120_180.png","74","image-keyboard-response","57","308564","0.0-6.0-1.25","JOSC","1","m","rechts","24","","","object","j","120","true"
"null","<div style=""font-size:60px;"">+</div>","null","html-keyboard-response","58","309065","0.0-6.0-0.26","JOSC","1","m","rechts","24","","fixation","","","",""
"1250","img/L90_180.png","74","image-keyboard-response","59","310318","0.0-6.0-1.26","JOSC","1","m","rechts","24","","","object","j","90","true"
"null","<div style=""font-size:60px;"">+</div>","null","html-keyboard-response","60","310769","0.0-6.0-0.27","JOSC","1","m","rechts","24","","fixation","","","",""
"2077","img/150_270.png","70","image-keyboard-response","61","312848","0.0-6.0-1.27","JOSC","1","m","rechts","24","","","object","j","150","false"
"null","<div style=""font-size:60px;"">+</div>","null","html-keyboard-response","62","313150","0.0-6.0-0.28","JOSC","1","m","rechts","24","","fixation","","","",""
"1474","img/90_30.png","70","image-keyboard-response","63","314626","0.0-6.0-1.28","JOSC","1","m","rechts","24","","","object","f","90","true"
"null","<div style=""font-size:60px;"">+</div>","null","html-keyboard-response","64","315077","0.0-6.0-0.29","JOSC","1","m","rechts","24","","fixation","","","",""
"749","img/0_240.png","70","image-keyboard-response","65","315828","0.0-6.0-1.29","JOSC","1","m","rechts","24","","","object","f","0","true"
"null","<div style=""font-size:60px;"">+</div>","null","html-keyboard-response","66","316229","0.0-6.0-0.30","JOSC","1","m","rechts","24","","fixation","","","",""
"1529","img/120_180.png","70","image-keyboard-response","67","317760","0.0-6.0-1.30","JOSC","1","m","rechts","24","","","object","f","120","true"
"null","<div style=""font-size:60px;"">+</div>","null","html-keyboard-response","68","318161","0.0-6.0-0.31","JOSC","1","m","rechts","24","","fixation","","","",""
"1633","img/150_240.png","70","image-keyboard-response","69","319796","0.0-6.0-1.31","JOSC","1","m","rechts","24","","","object","j","150","false"
"null","<div style=""font-size:60px;"">+</div>","null","html-keyboard-response","70","320197","0.0-6.0-0.32","JOSC","1","m","rechts","24","","fixation","","","",""
"1281","img/120_330.png","74","image-keyboard-response","71","321479","0.0-6.0-1.32","JOSC","1","m","rechts","24","","","object","j","120","true"
"null","<div style=""font-size:60px;"">+</div>","null","html-keyboard-response","72","321831","0.0-6.0-0.33","JOSC","1","m","rechts","24","","fixation","","","",""
"1832","img/60_150.png","74","image-keyboard-response","73","323664","0.0-6.0-1.33","JOSC","1","m","rechts","24","","","object","j","60","true"
"null","<div style=""font-size:60px;"">+</div>","null","html-keyboard-response","74","324016","0.0-6.0-0.34","JOSC","1","m","rechts","24","","fixation","","","",""
"1972","img/120_90.png","70","image-keyboard-response","75","325990","0.0-6.0-1.34","JOSC","1","m","rechts","24","","","object","f","120","true"
"null","<div style=""font-size:60px;"">+</div>","null","html-keyboard-response","76","326341","0.0-6.0-0.35","JOSC","1","m","rechts","24","","fixation","","","",""
"1397","img/60_180.png","70","image-keyboard-response","77","327740","0.0-6.0-1.35","JOSC","1","m","rechts","24","","","object","f","60","true"
"null","<div style=""font-size:60px;"">+</div>","null","html-keyboard-response","78","328192","0.0-6.0-0.36","JOSC","1","m","rechts","24","","fixation","","","",""
"1449","img/60_210.png","70","image-keyboard-response","79","329643","0.0-6.0-1.36","JOSC","1","m","rechts","24","","","object","f","60","true"
"null","<div style=""font-size:60px;"">+</div>","null","html-keyboard-response","80","329944","0.0-6.0-0.37","JOSC","1","m","rechts","24","","fixation","","","",""
"917","img/90_330.png","74","image-keyboard-response","81","330862","0.0-6.0-1.37","JOSC","1","m","rechts","24","","","object","j","90","true"
"null","<div style=""font-size:60px;"">+</div>","null","html-keyboard-response","82","331212","0.0-6.0-0.38","JOSC","1","m","rechts","24","","fixation","","","",""
"2657","img/150_90.png","70","image-keyboard-response","83","333872","0.0-6.0-1.38","JOSC","1","m","rechts","24","","","object","f","150","true"
"null","<div style=""font-size:60px;"">+</div>","null","html-keyboard-response","84","334373","0.0-6.0-0.39","JOSC","1","m","rechts","24","","fixation","","","",""
"1477","img/150_300.png","74","image-keyboard-response","85","335852","0.0-6.0-1.39","JOSC","1","m","rechts","24","","","object","j","150","true"
"null","<div style=""font-size:60px;"">+</div>","null","html-keyboard-response","86","336204","0.0-6.0-0.40","JOSC","1","m","rechts","24","","fixation","","","",""
"1207","img/90_300.png","74","image-keyboard-response","87","337412","0.0-6.0-1.40","JOSC","1","m","rechts","24","","","object","j","90","true"
"null","<div style=""font-size:60px;"">+</div>","null","html-keyboard-response","88","337814","0.0-6.0-0.41","JOSC","1","m","rechts","24","","fixation","","","",""
"1067","img/0_60.png","74","image-keyboard-response","89","338883","0.0-6.0-1.41","JOSC","1","m","rechts","24","","","object","j","0","true"
"null","<div style=""font-size:60px;"">+</div>","null","html-keyboard-response","90","339234","0.0-6.0-0.42","JOSC","1","m","rechts","24","","fixation","","","",""
"995","img/30_120.png","70","image-keyboard-response","91","340231","0.0-6.0-1.42","JOSC","1","m","rechts","24","","","object","j","30","false"
"null","<div style=""font-size:60px;"">+</div>","null","html-keyboard-response","92","340583","0.0-6.0-0.43","JOSC","1","m","rechts","24","","fixation","","","",""
"967","img/60_330.png","74","image-keyboard-response","93","341551","0.0-6.0-1.43","JOSC","1","m","rechts","24","","","object","j","60","true"
"null","<div style=""font-size:60px;"">+</div>","null","html-keyboard-response","94","342053","0.0-6.0-0.44","JOSC","1","m","rechts","24","","fixation","","","",""
"2486","img/120_210.png","70","image-keyboard-response","95","344540","0.0-6.0-1.44","JOSC","1","m","rechts","24","","","object","f","120","true"
"null","<div style=""font-size:60px;"">+</div>","null","html-keyboard-response","96","344842","0.0-6.0-0.45","JOSC","1","m","rechts","24","","fixation","","","",""
"1908","img/90_120.png","74","image-keyboard-response","97","346751","0.0-6.0-1.45","JOSC","1","m","rechts","24","","","object","j","90","true"
"null","<div style=""font-size:60px;"">+</div>","null","html-keyboard-response","98","347252","0.0-6.0-0.46","JOSC","1","m","rechts","24","","fixation","","","",""
"1386","img/150_60.png","70","image-keyboard-response","99","348639","0.0-6.0-1.46","JOSC","1","m","rechts","24","","","object","f","150","true"
"null","<div style=""font-size:60px;"">+</div>","null","html-keyboard-response","100","349141","0.0-6.0-0.47","JOSC","1","m","rechts","24","","fixation","","","",""
"960","img/30_90.png","74","image-keyboard-response","101","350102","0.0-6.0-1.47","JOSC","1","m","rechts","24","","","object","j","30","true"
"null","<div style=""font-size:60px;"">+</div>","null","html-keyboard-response","102","350504","0.0-6.0-0.48","JOSC","1","m","rechts","24","","fixation","","","",""
"2473","img/150_120.png","70","image-keyboard-response","103","352978","0.0-6.0-1.48","JOSC","1","m","rechts","24","","","object","f","150","true"
"null","<div style=""font-size:60px;"">+</div>","null","html-keyboard-response","104","353280","0.0-6.0-0.49","JOSC","1","m","rechts","24","","fixation","","","",""
"2053","img/90_180.png","70","image-keyboard-response","105","355334","0.0-6.0-1.49","JOSC","1","m","rechts","24","","","object","f","90","true"
"null","<div style=""font-size:60px;"">+</div>","null","html-keyboard-response","106","355836","0.0-6.0-0.50","JOSC","1","m","rechts","24","","fixation","","","",""
"1174","img/30_240.png","70","image-keyboard-response","107","357012","0.0-6.0-1.50","JOSC","1","m","rechts","24","","","object","f","30","true"
"null","<div style=""font-size:60px;"">+</div>","null","html-keyboard-response","108","357413","0.0-6.0-0.51","JOSC","1","m","rechts","24","","fixation","","","",""
"1433","img/60_270.png","70","image-keyboard-response","109","358847","0.0-6.0-1.51","JOSC","1","m","rechts","24","","","object","f","60","true"
"null","<div style=""font-size:60px;"">+</div>","null","html-keyboard-response","110","359299","0.0-6.0-0.52","JOSC","1","m","rechts","24","","fixation","","","",""
"1185","img/90_30.png","70","image-keyboard-response","111","360485","0.0-6.0-1.52","JOSC","1","m","rechts","24","","","object","f","90","true"
"null","<div style=""font-size:60px;"">+</div>","null","html-keyboard-response","112","360836","0.0-6.0-0.53","JOSC","1","m","rechts","24","","fixation","","","",""
"1674","img/30_240.png","70","image-keyboard-response","113","362512","0.0-6.0-1.53","JOSC","1","m","rechts","24","","","object","f","30","true"
"null","<div style=""font-size:60px;"">+</div>","null","html-keyboard-response","114","362963","0.0-6.0-0.54","JOSC","1","m","rechts","24","","fixation","","","",""
"1388","img/30_270.png","70","image-keyboard-response","115","364352","0.0-6.0-1.54","JOSC","1","m","rechts","24","","","object","f","30","true"
"null","<div style=""font-size:60px;"">+</div>","null","html-keyboard-response","116","364654","0.0-6.0-0.55","JOSC","1","m","rechts","24","","fixation","","","",""
"1592","img/60_150.png","74","image-keyboard-response","117","366248","0.0-6.0-1.55","JOSC","1","m","rechts","24","","","object","j","60","true"
"null","<div style=""font-size:60px;"">+</div>","null","html-keyboard-response","118","366699","0.0-6.0-0.56","JOSC","1","m","rechts","24","","fixation","","","",""
"1534","img/L90_180.png","74","image-keyboard-response","119","368234","0.0-6.0-1.56","JOSC","1","m","rechts","24","","","object","j","90","true"
"null","<div style=""font-size:60px;"">+</div>","null","html-keyboard-response","120","368736","0.0-6.0-0.57","JOSC","1","m","rechts","24","","fixation","","","",""
"1914","img/90_240.png","70","image-keyboard-response","121","370650","0.0-6.0-1.57","JOSC","1","m","rechts","24","","","object","f","90","true"
"null","<div style=""font-size:60px;"">+</div>","null","html-keyboard-response","122","371152","0.0-6.0-0.58","JOSC","1","m","rechts","24","","fixation","","","",""
"1531","img/150_270.png","74","image-keyboard-response","123","372685","0.0-6.0-1.58","JOSC","1","m","rechts","24","","","object","j","150","true"
"null","<div style=""font-size:60px;"">+</div>","null","html-keyboard-response","124","373136","0.0-6.0-0.59","JOSC","1","m","rechts","24","","fixation","","","",""
"1005","img/0_240.png","70","image-keyboard-response","125","374142","0.0-6.0-1.59","JOSC","1","m","rechts","24","","","object","f","0","true"
"null","<div style=""font-size:60px;"">+</div>","null","html-keyboard-response","126","374494","0.0-6.0-0.60","JOSC","1","m","rechts","24","","fixation","","","",""
"2253","img/L150_180.png","74","image-keyboard-response","127","376747","0.0-6.0-1.60","JOSC","1","m","rechts","24","","","object","j","150","true"
"null","<div style=""font-size:60px;"">+</div>","null","html-keyboard-response","128","377249","0.0-6.0-0.61","JOSC","1","m","rechts","24","","fixation","","","",""
"1423","img/120_330.png","74","image-keyboard-response","129","378672","0.0-6.0-1.61","JOSC","1","m","rechts","24","","","object","j","120","true"
"null","<div style=""font-size:60px;"">+</div>","null","html-keyboard-response","130","379124","0.0-6.0-0.62","JOSC","1","m","rechts","24","","fixation","","","",""
"1872","img/60_270.png","70","image-keyboard-response","131","380997","0.0-6.0-1.62","JOSC","1","m","rechts","24","","","object","f","60","true"
"null","<div style=""font-size:60px;"">+</div>","null","html-keyboard-response","132","381399","0.0-6.0-0.63","JOSC","1","m","rechts","24","","fixation","","","",""
"930","img/0_270.png","70","image-keyboard-response","133","382330","0.0-6.0-1.63","JOSC","1","m","rechts","24","","","object","f","0","true"
"null","<div style=""font-size:60px;"">+</div>","null","html-keyboard-response","134","382832","0.0-6.0-0.64","JOSC","1","m","rechts","24","","fixation","","","",""
"1779","img/120_90.png","70","image-keyboard-response","135","384612","0.0-6.0-1.64","JOSC","1","m","rechts","24","","","object","f","120","true"
"null","<div style=""font-size:60px;"">+</div>","null","html-keyboard-response","136","385014","0.0-6.0-0.65","JOSC","1","m","rechts","24","","fixation","","","",""
"1526","img/60_90.png","74","image-keyboard-response","137","386541","0.0-6.0-1.65","JOSC","1","m","rechts","24","","","object","j","60","true"
"null","<div style=""font-size:60px;"">+</div>","null","html-keyboard-response","138","386943","0.0-6.0-0.66","JOSC","1","m","rechts","24","","fixation","","","",""
"848","img/0_330.png","70","image-keyboard-response","139","387792","0.0-6.0-1.66","JOSC","1","m","rechts","24","","","object","f","0","true"
"null","<div style=""font-size:60px;"">+</div>","null","html-keyboard-response","140","388193","0.0-6.0-0.67","JOSC","1","m","rechts","24","","fixation","","","",""
"904","img/0_90.png","74","image-keyboard-response","141","389098","0.0-6.0-1.67","JOSC","1","m","rechts","24","","","object","j","0","true"
"null","<div style=""font-size:60px;"">+</div>","null","html-keyboard-response","142","389500","0.0-6.0-0.68","JOSC","1","m","rechts","24","","fixation","","","",""
"2353","img/150_120.png","70","image-keyboard-response","143","391853","0.0-6.0-1.68","JOSC","1","m","rechts","24","","","object","f","150","true"
"null","<div style=""font-size:60px;"">+</div>","null","html-keyboard-response","144","392155","0.0-6.0-0.69","JOSC","1","m","rechts","24","","fixation","","","",""
"1327","img/L120_180.png","74","image-keyboard-response","145","393483","0.0-6.0-1.69","JOSC","1","m","rechts","24","","","object","j","120","true"
"null","<div style=""font-size:60px;"">+</div>","null","html-keyboard-response","146","393785","0.0-6.0-0.70","JOSC","1","m","rechts","24","","fixation","","","",""
"2260","img/90_180.png","70","image-keyboard-response","147","396045","0.0-6.0-1.70","JOSC","1","m","rechts","24","","","object","f","90","true"
"null","<div style=""font-size:60px;"">+</div>","null","html-keyboard-response","148","396397","0.0-6.0-0.71","JOSC","1","m","rechts","24","","fixation","","","",""
"1393","img/60_210.png","70","image-keyboard-response","149","397790","0.0-6.0-1.71","JOSC","1","m","rechts","24","","","object","f","60","true"
"null","<div style=""font-size:60px;"">+</div>","null","html-keyboard-response","150","398092","0.0-6.0-0.72","JOSC","1","m","rechts","24","","fixation","","","",""
"1345","img/90_150.png","74","image-keyboard-response","151","399437","0.0-6.0-1.72","JOSC","1","m","rechts","24","","","object","j","90","true"
"null","<div style=""font-size:60px;"">+</div>","null","html-keyboard-response","152","399788","0.0-6.0-0.73","JOSC","1","m","rechts","24","","fixation","","","",""
"2314","img/L60_180.png","74","image-keyboard-response","153","402103","0.0-6.0-1.73","JOSC","1","m","rechts","24","","","object","j","60","true"
"null","<div style=""font-size:60px;"">+</div>","null","html-keyboard-response","154","402505","0.0-6.0-0.74","JOSC","1","m","rechts","24","","fixation","","","",""
"2577","img/30_90.png","74","image-keyboard-response","155","405082","0.0-6.0-1.74","JOSC","1","m","rechts","24","","","object","j","30","true"
"null","<div style=""font-size:60px;"">+</div>","null","html-keyboard-response","156","405433","0.0-6.0-0.75","JOSC","1","m","rechts","24","","fixation","","","",""
"896","img/0_150.png","74","image-keyboard-response","157","406330","0.0-6.0-1.75","JOSC","1","m","rechts","24","","","object","j","0","true"
"null","<div style=""font-size:60px;"">+</div>","null","html-keyboard-response","158","406731","0.0-6.0-0.76","JOSC","1","m","rechts","24","","fixation","","","",""
"968","img/60_330.png","74","image-keyboard-response","159","407701","0.0-6.0-1.76","JOSC","1","m","rechts","24","","","object","j","60","true"
"null","<div style=""font-size:60px;"">+</div>","null","html-keyboard-response","160","408102","0.0-6.0-0.77","JOSC","1","m","rechts","24","","fixation","","","",""
"1609","img/30_60.png","74","image-keyboard-response","161","409712","0.0-6.0-1.77","JOSC","1","m","rechts","24","","","object","j","30","true"
"null","<div style=""font-size:60px;"">+</div>","null","html-keyboard-response","162","410212","0.0-6.0-0.78","JOSC","1","m","rechts","24","","fixation","","","",""
"1558","img/120_150.png","74","image-keyboard-response","163","411771","0.0-6.0-1.78","JOSC","1","m","rechts","24","","","object","j","120","true"
"null","<div style=""font-size:60px;"">+</div>","null","html-keyboard-response","164","412273","0.0-6.0-0.79","JOSC","1","m","rechts","24","","fixation","","","",""
"1068","img/30_120.png","74","image-keyboard-response","165","413341","0.0-6.0-1.79","JOSC","1","m","rechts","24","","","object","j","30","true"
"null","<div style=""font-size:60px;"">+</div>","null","html-keyboard-response","166","413643","0.0-6.0-0.80","JOSC","1","m","rechts","24","","fixation","","","",""
"1098","img/150_90.png","70","image-keyboard-response","167","414742","0.0-6.0-1.80","JOSC","1","m","rechts","24","","","object","f","150","true"
"null","<div style=""font-size:60px;"">+</div>","null","html-keyboard-response","168","415043","0.0-6.0-0.81","JOSC","1","m","rechts","24","","fixation","","","",""
"1372","img/150_300.png","74","image-keyboard-response","169","416416","0.0-6.0-1.81","JOSC","1","m","rechts","24","","","object","j","150","true"
"null","<div style=""font-size:60px;"">+</div>","null","html-keyboard-response","170","416867","0.0-6.0-0.82","JOSC","1","m","rechts","24","","fixation","","","",""
"1726","img/60_180.png","70","image-keyboard-response","171","418594","0.0-6.0-1.82","JOSC","1","m","rechts","24","","","object","f","60","true"
"null","<div style=""font-size:60px;"">+</div>","null","html-keyboard-response","172","418896","0.0-6.0-0.83","JOSC","1","m","rechts","24","","fixation","","","",""
"1297","img/30_180.png","70","image-keyboard-response","173","420194","0.0-6.0-1.83","JOSC","1","m","rechts","24","","","object","f","30","true"
"null","<div style=""font-size:60px;"">+</div>","null","html-keyboard-response","174","420546","0.0-6.0-0.84","JOSC","1","m","rechts","24","","fixation","","","",""
"1149","img/120_30.png","70","image-keyboard-response","175","421696","0.0-6.0-1.84","JOSC","1","m","rechts","24","","","object","f","120","true"
"null","<div style=""font-size:60px;"">+</div>","null","html-keyboard-response","176","422198","0.0-6.0-0.85","JOSC","1","m","rechts","24","","fixation","","","",""
"1435","img/150_240.png","74","image-keyboard-response","177","423634","0.0-6.0-1.85","JOSC","1","m","rechts","24","","","object","j","150","true"
"null","<div style=""font-size:60px;"">+</div>","null","html-keyboard-response","178","423936","0.0-6.0-0.86","JOSC","1","m","rechts","24","","fixation","","","",""
"989","img/0_300.png","70","image-keyboard-response","179","424926","0.0-6.0-1.86","JOSC","1","m","rechts","24","","","object","f","0","true"
"null","<div style=""font-size:60px;"">+</div>","null","html-keyboard-response","180","425278","0.0-6.0-0.87","JOSC","1","m","rechts","24","","fixation","","","",""
"923","img/0_30.png","74","image-keyboard-response","181","426202","0.0-6.0-1.87","JOSC","1","m","rechts","24","","","object","j","0","true"
"null","<div style=""font-size:60px;"">+</div>","null","html-keyboard-response","182","426554","0.0-6.0-0.88","JOSC","1","m","rechts","24","","fixation","","","",""
"1332","img/30_300.png","70","image-keyboard-response","183","427886","0.0-6.0-1.88","JOSC","1","m","rechts","24","","","object","f","30","true"
"null","<div style=""font-size:60px;"">+</div>","null","html-keyboard-response","184","428188","0.0-6.0-0.89","JOSC","1","m","rechts","24","","fixation","","","",""
"1877","img/120_210.png","70","image-keyboard-response","185","430066","0.0-6.0-1.89","JOSC","1","m","rechts","24","","","object","f","120","true"
"null","<div style=""font-size:60px;"">+</div>","null","html-keyboard-response","186","430367","0.0-6.0-0.90","JOSC","1","m","rechts","24","","fixation","","","",""
"930","img/90_300.png","74","image-keyboard-response","187","431298","0.0-6.0-1.90","JOSC","1","m","rechts","24","","","object","j","90","true"
"null","<div style=""font-size:60px;"">+</div>","null","html-keyboard-response","188","431650","0.0-6.0-0.91","JOSC","1","m","rechts","24","","fixation","","","",""
"1064","img/90_60.png","70","image-keyboard-response","189","432714","0.0-6.0-1.91","JOSC","1","m","rechts","24","","","object","f","90","true"
"null","<div style=""font-size:60px;"">+</div>","null","html-keyboard-response","190","433065","0.0-6.0-0.92","JOSC","1","m","rechts","24","","fixation","","","",""
"929","img/0_120.png","74","image-keyboard-response","191","433995","0.0-6.0-1.92","JOSC","1","m","rechts","24","","","object","j","0","true"
"null","<div style=""font-size:60px;"">+</div>","null","html-keyboard-response","192","434297","0.0-6.0-0.93","JOSC","1","m","rechts","24","","fixation","","","",""
"1671","img/L30_180.png","74","image-keyboard-response","193","435968","0.0-6.0-1.93","JOSC","1","m","rechts","24","","","object","j","30","true"
"null","<div style=""font-size:60px;"">+</div>","null","html-keyboard-response","194","436469","0.0-6.0-0.94","JOSC","1","m","rechts","24","","fixation","","","",""
"2077","img/90_210.png","70","image-keyboard-response","195","438547","0.0-6.0-1.94","JOSC","1","m","rechts","24","","","object","f","90","true"
"null","<div style=""font-size:60px;"">+</div>","null","html-keyboard-response","196","438849","0.0-6.0-0.95","JOSC","1","m","rechts","24","","fixation","","","",""
"1766","img/120_270.png","74","image-keyboard-response","197","440616","0.0-6.0-1.95","JOSC","1","m","rechts","24","","","object","j","120","true"
"null","<div style=""font-size:60px;"">+</div>","null","html-keyboard-response","198","441068","0.0-6.0-0.96","JOSC","1","m","rechts","24","","fixation","","","",""
"912","img/60_30.png","70","image-keyboard-response","199","441981","0.0-6.0-1.96","JOSC","1","m","rechts","24","","","object","f","60","true"
"null","<div style=""font-size:60px;"">+</div>","null","html-keyboard-response","200","442332","0.0-6.0-0.97","JOSC","1","m","rechts","24","","fixation","","","",""
"800","img/0_60.png","74","image-keyboard-response","201","443133","0.0-6.0-1.97","JOSC","1","m","rechts","24","","","object","j","0","true"
"null","<div style=""font-size:60px;"">+</div>","null","html-keyboard-response","202","443534","0.0-6.0-0.98","JOSC","1","m","rechts","24","","fixation","","","",""
"1753","img/90_120.png","74","image-keyboard-response","203","445289","0.0-6.0-1.98","JOSC","1","m","rechts","24","","","object","j","90","true"
"null","<div style=""font-size:60px;"">+</div>","null","html-keyboard-response","204","445640","0.0-6.0-0.99","JOSC","1","m","rechts","24","","fixation","","","",""
"1724","img/150_180.png","70","image-keyboard-response","205","447365","0.0-6.0-1.99","JOSC","1","m","rechts","24","","","object","f","150","true"
"null","<div style=""font-size:60px;"">+</div>","null","html-keyboard-response","206","447766","0.0-6.0-0.100","JOSC","1","m","rechts","24","","fixation","","","",""
"863","img/0_210.png","70","image-keyboard-response","207","448630","0.0-6.0-1.100","JOSC","1","m","rechts","24","","","object","f","0","true"
"null","<div style=""font-size:60px;"">+</div>","null","html-keyboard-response","208","449031","0.0-6.0-0.101","JOSC","1","m","rechts","24","","fixation","","","",""
"1581","img/150_60.png","70","image-keyboard-response","209","450613","0.0-6.0-1.101","JOSC","1","m","rechts","24","","","object","f","150","true"
"null","<div style=""font-size:60px;"">+</div>","null","html-keyboard-response","210","451115","0.0-6.0-0.102","JOSC","1","m","rechts","24","","fixation","","","",""
"941","img/90_330.png","74","image-keyboard-response","211","452056","0.0-6.0-1.102","JOSC","1","m","rechts","24","","","object","j","90","true"
"null","<div style=""font-size:60px;"">+</div>","null","html-keyboard-response","212","452408","0.0-6.0-0.103","JOSC","1","m","rechts","24","","fixation","","","",""
"1677","img/120_180.png","70","image-keyboard-response","213","454086","0.0-6.0-1.103","JOSC","1","m","rechts","24","","","object","f","120","true"
"null","<div style=""font-size:60px;"">+</div>","null","html-keyboard-response","214","454537","0.0-6.0-0.104","JOSC","1","m","rechts","24","","fixation","","","",""
"2015","img/60_210.png","70","image-keyboard-response","215","456553","0.0-6.0-1.104","JOSC","1","m","rechts","24","","","object","f","60","true"
"null","<div style=""font-size:60px;"">+</div>","null","html-keyboard-response","216","457054","0.0-6.0-0.105","JOSC","1","m","rechts","24","","fixation","","","",""
"2052","img/120_150.png","74","image-keyboard-response","217","459107","0.0-6.0-1.105","JOSC","1","m","rechts","24","","","object","j","120","true"
"null","<div style=""font-size:60px;"">+</div>","null","html-keyboard-response","218","459559","0.0-6.0-0.106","JOSC","1","m","rechts","24","","fixation","","","",""
"1687","img/0_60.png","74","image-keyboard-response","219","461247","0.0-6.0-1.106","JOSC","1","m","rechts","24","","","object","j","0","true"
"null","<div style=""font-size:60px;"">+</div>","null","html-keyboard-response","220","461549","0.0-6.0-0.107","JOSC","1","m","rechts","24","","fixation","","","",""
"855","img/0_30.png","74","image-keyboard-response","221","462405","0.0-6.0-1.107","JOSC","1","m","rechts","24","","","object","j","0","true"
"null","<div style=""font-size:60px;"">+</div>","null","html-keyboard-response","222","462906","0.0-6.0-0.108","JOSC","1","m","rechts","24","","fixation","","","",""
"1204","img/L120_180.png","74","image-keyboard-response","223","464111","0.0-6.0-1.108","JOSC","1","m","rechts","24","","","object","j","120","true"
"null","<div style=""font-size:60px;"">+</div>","null","html-keyboard-response","224","464463","0.0-6.0-0.109","JOSC","1","m","rechts","24","","fixation","","","",""
"1169","img/60_90.png","74","image-keyboard-response","225","465633","0.0-6.0-1.109","JOSC","1","m","rechts","24","","","object","j","60","true"
"null","<div style=""font-size:60px;"">+</div>","null","html-keyboard-response","226","466135","0.0-6.0-0.110","JOSC","1","m","rechts","24","","fixation","","","",""
"1499","img/30_60.png","74","image-keyboard-response","227","467635","0.0-6.0-1.110","JOSC","1","m","rechts","24","","","object","j","30","true"
"null","<div style=""font-size:60px;"">+</div>","null","html-keyboard-response","228","468137","0.0-6.0-0.111","JOSC","1","m","rechts","24","","fixation","","","",""
"1314","img/60_150.png","74","image-keyboard-response","229","469452","0.0-6.0-1.111","JOSC","1","m","rechts","24","","","object","j","60","true"
"null","<div style=""font-size:60px;"">+</div>","null","html-keyboard-response","230","469804","0.0-6.0-0.112","JOSC","1","m","rechts","24","","fixation","","","",""
"1244","img/90_120.png","74","image-keyboard-response","231","471049","0.0-6.0-1.112","JOSC","1","m","rechts","24","","","object","j","90","true"
"null","<div style=""font-size:60px;"">+</div>","null","html-keyboard-response","232","471501","0.0-6.0-0.113","JOSC","1","m","rechts","24","","fixation","","","",""
"921","img/120_30.png","70","image-keyboard-response","233","472423","0.0-6.0-1.113","JOSC","1","m","rechts","24","","","object","f","120","true"
"null","<div style=""font-size:60px;"">+</div>","null","html-keyboard-response","234","472925","0.0-6.0-0.114","JOSC","1","m","rechts","24","","fixation","","","",""
"2367","img/120_210.png","70","image-keyboard-response","235","475293","0.0-6.0-1.114","JOSC","1","m","rechts","24","","","object","f","120","true"
"null","<div style=""font-size:60px;"">+</div>","null","html-keyboard-response","236","475795","0.0-6.0-0.115","JOSC","1","m","rechts","24","","fixation","","","",""
"1522","img/60_180.png","70","image-keyboard-response","237","477317","0.0-6.0-1.115","JOSC","1","m","rechts","24","","","object","f","60","true"
"null","<div style=""font-size:60px;"">+</div>","null","html-keyboard-response","238","477769","0.0-6.0-0.116","JOSC","1","m","rechts","24","","fixation","","","",""
"867","img/0_330.png","70","image-keyboard-response","239","478636","0.0-6.0-1.116","JOSC","1","m","rechts","24","","","object","f","0","true"
"null","<div style=""font-size:60px;"">+</div>","null","html-keyboard-response","240","478938","0.0-6.0-0.117","JOSC","1","m","rechts","24","","fixation","","","",""
"853","img/30_270.png","70","image-keyboard-response","241","479791","0.0-6.0-1.117","JOSC","1","m","rechts","24","","","object","f","30","true"
"null","<div style=""font-size:60px;"">+</div>","null","html-keyboard-response","242","480093","0.0-6.0-0.118","JOSC","1","m","rechts","24","","fixation","","","",""
"1339","img/90_60.png","70","image-keyboard-response","243","481433","0.0-6.0-1.118","JOSC","1","m","rechts","24","","","object","f","90","true"
"null","<div style=""font-size:60px;"">+</div>","null","html-keyboard-response","244","481935","0.0-6.0-0.119","JOSC","1","m","rechts","24","","fixation","","","",""
"1558","img/L30_180.png","70","image-keyboard-response","245","483493","0.0-6.0-1.119","JOSC","1","m","rechts","24","","","object","j","30","false"
"null","<div style=""font-size:60px;"">+</div>","null","html-keyboard-response","246","483895","0.0-6.0-0.120","JOSC","1","m","rechts","24","","fixation","","","",""
"976","img/60_30.png","70","image-keyboard-response","247","484872","0.0-6.0-1.120","JOSC","1","m","rechts","24","","","object","f","60","true"
"null","<div style=""font-size:60px;"">+</div>","null","html-keyboard-response","248","485223","0.0-6.0-0.121","JOSC","1","m","rechts","24","","fixation","","","",""
"884","img/30_120.png","70","image-keyboard-response","249","486108","0.0-6.0-1.121","JOSC","1","m","rechts","24","","","object","j","30","false"
"null","<div style=""font-size:60px;"">+</div>","null","html-keyboard-response","250","486510","0.0-6.0-0.122","JOSC","1","m","rechts","24","","fixation","","","",""
"2319","img/30_240.png","70","image-keyboard-response","251","488829","0.0-6.0-1.122","JOSC","1","m","rechts","24","","","object","f","30","true"
"null","<div style=""font-size:60px;"">+</div>","null","html-keyboard-response","252","489131","0.0-6.0-0.123","JOSC","1","m","rechts","24","","fixation","","","",""
"1415","img/90_240.png","70","image-keyboard-response","253","490546","0.0-6.0-1.123","JOSC","1","m","rechts","24","","","object","f","90","true"
"null","<div style=""font-size:60px;"">+</div>","null","html-keyboard-response","254","490898","0.0-6.0-0.124","JOSC","1","m","rechts","24","","fixation","","","",""
"1556","img/L90_180.png","74","image-keyboard-response","255","492454","0.0-6.0-1.124","JOSC","1","m","rechts","24","","","object","j","90","true"
"null","<div style=""font-size:60px;"">+</div>","null","html-keyboard-response","256","492956","0.0-6.0-0.125","JOSC","1","m","rechts","24","","fixation","","","",""
"-3695","img/150_240.png","74","image-keyboard-response","257","489261","0.0-6.0-1.125","JOSC","1","m","rechts","24","","","object","j","150","true"
"null","<div style=""font-size:60px;"">+</div>","null","html-keyboard-response","258","489612","0.0-6.0-0.126","JOSC","1","m","rechts","24","","fixation","","","",""
"1583","img/150_120.png","70","image-keyboard-response","259","491195","0.0-6.0-1.126","JOSC","1","m","rechts","24","","","object","f","150","true"
"null","<div style=""font-size:60px;"">+</div>","null","html-keyboard-response","260","491497","0.0-6.0-0.127","JOSC","1","m","rechts","24","","fixation","","","",""
"1428","img/120_180.png","70","image-keyboard-response","261","492926","0.0-6.0-1.127","JOSC","1","m","rechts","24","","","object","f","120","true"
"null","<div style=""font-size:60px;"">+</div>","null","html-keyboard-response","262","493428","0.0-6.0-0.128","JOSC","1","m","rechts","24","","fixation","","","",""
"1605","img/90_150.png","74","image-keyboard-response","263","495034","0.0-6.0-1.128","JOSC","1","m","rechts","24","","","object","j","90","true"
"null","<div style=""font-size:60px;"">+</div>","null","html-keyboard-response","264","495486","0.0-6.0-0.129","JOSC","1","m","rechts","24","","fixation","","","",""
"976","img/0_120.png","74","image-keyboard-response","265","496463","0.0-6.0-1.129","JOSC","1","m","rechts","24","","","object","j","0","true"
"null","<div style=""font-size:60px;"">+</div>","null","html-keyboard-response","266","496864","0.0-6.0-0.130","JOSC","1","m","rechts","24","","fixation","","","",""
"871","img/0_150.png","74","image-keyboard-response","267","497736","0.0-6.0-1.130","JOSC","1","m","rechts","24","","","object","j","0","true"
"null","<div style=""font-size:60px;"">+</div>","null","html-keyboard-response","268","498088","0.0-6.0-0.131","JOSC","1","m","rechts","24","","fixation","","","",""
"1209","img/120_270.png","74","image-keyboard-response","269","499298","0.0-6.0-1.131","JOSC","1","m","rechts","24","","","object","j","120","true"
"null","<div style=""font-size:60px;"">+</div>","null","html-keyboard-response","270","499800","0.0-6.0-0.132","JOSC","1","m","rechts","24","","fixation","","","",""
"1543","img/30_300.png","70","image-keyboard-response","271","501344","0.0-6.0-1.132","JOSC","1","m","rechts","24","","","object","f","30","true"
"null","<div style=""font-size:60px;"">+</div>","null","html-keyboard-response","272","501645","0.0-6.0-0.133","JOSC","1","m","rechts","24","","fixation","","","",""
"1710","img/60_270.png","70","image-keyboard-response","273","503356","0.0-6.0-1.133","JOSC","1","m","rechts","24","","","object","f","60","true"
"null","<div style=""font-size:60px;"">+</div>","null","html-keyboard-response","274","503657","0.0-6.0-0.134","JOSC","1","m","rechts","24","","fixation","","","",""
"843","img/60_330.png","74","image-keyboard-response","275","504502","0.0-6.0-1.134","JOSC","1","m","rechts","24","","","object","j","60","true"
"null","<div style=""font-size:60px;"">+</div>","null","html-keyboard-response","276","504903","0.0-6.0-0.135","JOSC","1","m","rechts","24","","fixation","","","",""
"913","img/0_210.png","70","image-keyboard-response","277","505818","0.0-6.0-1.135","JOSC","1","m","rechts","24","","","object","f","0","true"
"null","<div style=""font-size:60px;"">+</div>","null","html-keyboard-response","278","506269","0.0-6.0-0.136","JOSC","1","m","rechts","24","","fixation","","","",""
"1381","img/150_270.png","74","image-keyboard-response","279","507652","0.0-6.0-1.136","JOSC","1","m","rechts","24","","","object","j","150","true"
"null","<div style=""font-size:60px;"">+</div>","null","html-keyboard-response","280","507953","0.0-6.0-0.137","JOSC","1","m","rechts","24","","fixation","","","",""
"988","img/90_300.png","74","image-keyboard-response","281","508942","0.0-6.0-1.137","JOSC","1","m","rechts","24","","","object","j","90","true"
"null","<div style=""font-size:60px;"">+</div>","null","html-keyboard-response","282","509293","0.0-6.0-0.138","JOSC","1","m","rechts","24","","fixation","","","",""
"758","img/120_330.png","74","image-keyboard-response","283","510052","0.0-6.0-1.138","JOSC","1","m","rechts","24","","","object","j","120","true"
"null","<div style=""font-size:60px;"">+</div>","null","html-keyboard-response","284","510454","0.0-6.0-0.139","JOSC","1","m","rechts","24","","fixation","","","",""
"1471","img/L150_180.png","74","image-keyboard-response","285","511925","0.0-6.0-1.139","JOSC","1","m","rechts","24","","","object","j","150","true"
"null","<div style=""font-size:60px;"">+</div>","null","html-keyboard-response","286","512227","0.0-6.0-0.140","JOSC","1","m","rechts","24","","fixation","","","",""
"966","img/0_300.png","70","image-keyboard-response","287","513194","0.0-6.0-1.140","JOSC","1","m","rechts","24","","","object","f","0","true"
"null","<div style=""font-size:60px;"">+</div>","null","html-keyboard-response","288","513646","0.0-6.0-0.141","JOSC","1","m","rechts","24","","fixation","","","",""
"1229","img/150_180.png","70","image-keyboard-response","289","514875","0.0-6.0-1.141","JOSC","1","m","rechts","24","","","object","f","150","true"
"null","<div style=""font-size:60px;"">+</div>","null","html-keyboard-response","290","515377","0.0-6.0-0.142","JOSC","1","m","rechts","24","","fixation","","","",""
"1041","img/0_240.png","70","image-keyboard-response","291","516418","0.0-6.0-1.142","JOSC","1","m","rechts","24","","","object","f","0","true"
"null","<div style=""font-size:60px;"">+</div>","null","html-keyboard-response","292","516820","0.0-6.0-0.143","JOSC","1","m","rechts","24","","fixation","","","",""
"1091","img/90_330.png","74","image-keyboard-response","293","517911","0.0-6.0-1.143","JOSC","1","m","rechts","24","","","object","j","90","true"
"null","<div style=""font-size:60px;"">+</div>","null","html-keyboard-response","294","518413","0.0-6.0-0.144","JOSC","1","m","rechts","24","","fixation","","","",""
"923","img/0_270.png","70","image-keyboard-response","295","519336","0.0-6.0-1.144","JOSC","1","m","rechts","24","","","object","f","0","true"
"null","<div style=""font-size:60px;"">+</div>","null","html-keyboard-response","296","519838","0.0-6.0-0.145","JOSC","1","m","rechts","24","","fixation","","","",""
"1070","img/150_60.png","70","image-keyboard-response","297","520908","0.0-6.0-1.145","JOSC","1","m","rechts","24","","","object","f","150","true"
"null","<div style=""font-size:60px;"">+</div>","null","html-keyboard-response","298","521409","0.0-6.0-0.146","JOSC","1","m","rechts","24","","fixation","","","",""
"950","img/150_300.png","74","image-keyboard-response","299","522361","0.0-6.0-1.146","JOSC","1","m","rechts","24","","","object","j","150","true"
"null","<div style=""font-size:60px;"">+</div>","null","html-keyboard-response","300","522712","0.0-6.0-0.147","JOSC","1","m","rechts","24","","fixation","","","",""
"1748","img/L60_180.png","74","image-keyboard-response","301","524461","0.0-6.0-1.147","JOSC","1","m","rechts","24","","","object","j","60","true"
"null","<div style=""font-size:60px;"">+</div>","null","html-keyboard-response","302","524813","0.0-6.0-0.148","JOSC","1","m","rechts","24","","fixation","","","",""
"1067","img/90_210.png","70","image-keyboard-response","303","525881","0.0-6.0-1.148","JOSC","1","m","rechts","24","","","object","f","90","true"
"null","<div style=""font-size:60px;"">+</div>","null","html-keyboard-response","304","526333","0.0-6.0-0.149","JOSC","1","m","rechts","24","","fixation","","","",""
"1774","img/30_180.png","70","image-keyboard-response","305","528108","0.0-6.0-1.149","JOSC","1","m","rechts","24","","","object","f","30","true"
"null","<div style=""font-size:60px;"">+</div>","null","html-keyboard-response","306","528410","0.0-6.0-0.150","JOSC","1","m","rechts","24","","fixation","","","",""
"1018","img/90_30.png","70","image-keyboard-response","307","529428","0.0-6.0-1.150","JOSC","1","m","rechts","24","","","object","f","90","true"
"null","<div style=""font-size:60px;"">+</div>","null","html-keyboard-response","308","529830","0.0-6.0-0.151","JOSC","1","m","rechts","24","","fixation","","","",""
"1606","img/150_90.png","70","image-keyboard-response","309","531437","0.0-6.0-1.151","JOSC","1","m","rechts","24","","","object","f","150","true"
"null","<div style=""font-size:60px;"">+</div>","null","html-keyboard-response","310","531838","0.0-6.0-0.152","JOSC","1","m","rechts","24","","fixation","","","",""
"1506","img/120_90.png","74","image-keyboard-response","311","533345","0.0-6.0-1.152","JOSC","1","m","rechts","24","","","object","f","120","false"
"null","<div style=""font-size:60px;"">+</div>","null","html-keyboard-response","312","533696","0.0-6.0-0.153","JOSC","1","m","rechts","24","","fixation","","","",""
"844","img/0_90.png","74","image-keyboard-response","313","534541","0.0-6.0-1.153","JOSC","1","m","rechts","24","","","object","j","0","true"
"null","<div style=""font-size:60px;"">+</div>","null","html-keyboard-response","314","534843","0.0-6.0-0.154","JOSC","1","m","rechts","24","","fixation","","","",""
"1608","img/30_90.png","70","image-keyboard-response","315","536451","0.0-6.0-1.154","JOSC","1","m","rechts","24","","","object","j","30","false"
"null","<div style=""font-size:60px;"">+</div>","null","html-keyboard-response","316","536953","0.0-6.0-0.155","JOSC","1","m","rechts","24","","fixation","","","",""
"1557","img/90_180.png","70","image-keyboard-response","317","538510","0.0-6.0-1.155","JOSC","1","m","rechts","24","","","object","f","90","true"
"null","<div style=""font-size:60px;"">+</div>","null","html-keyboard-response","318","538912","0.0-6.0-0.156","JOSC","1","m","rechts","24","","fixation","","","",""
"1125","img/L30_180.png","74","image-keyboard-response","319","540038","0.0-6.0-1.156","JOSC","1","m","rechts","24","","","object","j","30","true"
"null","<div style=""font-size:60px;"">+</div>","null","html-keyboard-response","320","540339","0.0-6.0-0.157","JOSC","1","m","rechts","24","","fixation","","","",""
"1317","img/30_60.png","74","image-keyboard-response","321","541657","0.0-6.0-1.157","JOSC","1","m","rechts","24","","","object","j","30","true"
"null","<div style=""font-size:60px;"">+</div>","null","html-keyboard-response","322","542109","0.0-6.0-0.158","JOSC","1","m","rechts","24","","fixation","","","",""
"1456","img/60_270.png","70","image-keyboard-response","323","543566","0.0-6.0-1.158","JOSC","1","m","rechts","24","","","object","f","60","true"
"null","<div style=""font-size:60px;"">+</div>","null","html-keyboard-response","324","543867","0.0-6.0-0.159","JOSC","1","m","rechts","24","","fixation","","","",""
"1236","img/30_300.png","70","image-keyboard-response","325","545104","0.0-6.0-1.159","JOSC","1","m","rechts","24","","","object","f","30","true"
"null","<div style=""font-size:60px;"">+</div>","null","html-keyboard-response","326","545506","0.0-6.0-0.160","JOSC","1","m","rechts","24","","fixation","","","",""
"1487","img/30_90.png","74","image-keyboard-response","327","546994","0.0-6.0-1.160","JOSC","1","m","rechts","24","","","object","j","30","true"
"null","<div style=""font-size:60px;"">+</div>","null","html-keyboard-response","328","547496","0.0-6.0-0.161","JOSC","1","m","rechts","24","","fixation","","","",""
"1459","img/60_150.png","74","image-keyboard-response","329","548956","0.0-6.0-1.161","JOSC","1","m","rechts","24","","","object","j","60","true"
"null","<div style=""font-size:60px;"">+</div>","null","html-keyboard-response","330","549408","0.0-6.0-0.162","JOSC","1","m","rechts","24","","fixation","","","",""
"1131","img/30_180.png","70","image-keyboard-response","331","550541","0.0-6.0-1.162","JOSC","1","m","rechts","24","","","object","f","30","true"
"null","<div style=""font-size:60px;"">+</div>","null","html-keyboard-response","332","550892","0.0-6.0-0.163","JOSC","1","m","rechts","24","","fixation","","","",""
"1559","img/120_210.png","70","image-keyboard-response","333","552452","0.0-6.0-1.163","JOSC","1","m","rechts","24","","","object","f","120","true"
"null","<div style=""font-size:60px;"">+</div>","null","html-keyboard-response","334","552853","0.0-6.0-0.164","JOSC","1","m","rechts","24","","fixation","","","",""
"1048","img/90_30.png","70","image-keyboard-response","335","553902","0.0-6.0-1.164","JOSC","1","m","rechts","24","","","object","f","90","true"
"null","<div style=""font-size:60px;"">+</div>","null","html-keyboard-response","336","554254","0.0-6.0-0.165","JOSC","1","m","rechts","24","","fixation","","","",""
"1581","img/90_180.png","70","image-keyboard-response","337","555836","0.0-6.0-1.165","JOSC","1","m","rechts","24","","","object","f","90","true"
"null","<div style=""font-size:60px;"">+</div>","null","html-keyboard-response","338","556138","0.0-6.0-0.166","JOSC","1","m","rechts","24","","fixation","","","",""
"1182","img/60_330.png","74","image-keyboard-response","339","557321","0.0-6.0-1.166","JOSC","1","m","rechts","24","","","object","j","60","true"
"null","<div style=""font-size:60px;"">+</div>","null","html-keyboard-response","340","557672","0.0-6.0-0.167","JOSC","1","m","rechts","24","","fixation","","","",""
"863","img/90_330.png","74","image-keyboard-response","341","558536","0.0-6.0-1.167","JOSC","1","m","rechts","24","","","object","j","90","true"
"null","<div style=""font-size:60px;"">+</div>","null","html-keyboard-response","342","558988","0.0-6.0-0.168","JOSC","1","m","rechts","24","","fixation","","","",""
"833","img/90_300.png","74","image-keyboard-response","343","559822","0.0-6.0-1.168","JOSC","1","m","rechts","24","","","object","j","90","true"
"null","<div style=""font-size:60px;"">+</div>","null","html-keyboard-response","344","560324","0.0-6.0-0.169","JOSC","1","m","rechts","24","","fixation","","","",""
"890","img/0_90.png","74","image-keyboard-response","345","561215","0.0-6.0-1.169","JOSC","1","m","rechts","24","","","object","j","0","true"
"null","<div style=""font-size:60px;"">+</div>","null","html-keyboard-response","346","561517","0.0-6.0-0.170","JOSC","1","m","rechts","24","","fixation","","","",""
"1236","img/30_120.png","74","image-keyboard-response","347","562753","0.0-6.0-1.170","JOSC","1","m","rechts","24","","","object","j","30","true"
"null","<div style=""font-size:60px;"">+</div>","null","html-keyboard-response","348","563105","0.0-6.0-0.171","JOSC","1","m","rechts","24","","fixation","","","",""
"1168","img/0_270.png","70","image-keyboard-response","349","564274","0.0-6.0-1.171","JOSC","1","m","rechts","24","","","object","f","0","true"
"null","<div style=""font-size:60px;"">+</div>","null","html-keyboard-response","350","564726","0.0-6.0-0.172","JOSC","1","m","rechts","24","","fixation","","","",""
"1721","img/L90_180.png","74","image-keyboard-response","351","566447","0.0-6.0-1.172","JOSC","1","m","rechts","24","","","object","j","90","true"
"null","<div style=""font-size:60px;"">+</div>","null","html-keyboard-response","352","566849","0.0-6.0-0.173","JOSC","1","m","rechts","24","","fixation","","","",""
"2054","img/150_90.png","70","image-keyboard-response","353","568903","0.0-6.0-1.173","JOSC","1","m","rechts","24","","","object","f","150","true"
"null","<div style=""font-size:60px;"">+</div>","null","html-keyboard-response","354","569355","0.0-6.0-0.174","JOSC","1","m","rechts","24","","fixation","","","",""
"873","img/0_300.png","70","image-keyboard-response","355","570228","0.0-6.0-1.174","JOSC","1","m","rechts","24","","","object","f","0","true"
"null","<div style=""font-size:60px;"">+</div>","null","html-keyboard-response","356","570680","0.0-6.0-0.175","JOSC","1","m","rechts","24","","fixation","","","",""
"1349","img/90_120.png","74","image-keyboard-response","357","572029","0.0-6.0-1.175","JOSC","1","m","rechts","24","","","object","j","90","true"
"null","<div style=""font-size:60px;"">+</div>","null","html-keyboard-response","358","572330","0.0-6.0-0.176","JOSC","1","m","rechts","24","","fixation","","","",""
"1443","img/0_210.png","70","image-keyboard-response","359","573775","0.0-6.0-1.176","JOSC","1","m","rechts","24","","","object","f","0","true"
"null","<div style=""font-size:60px;"">+</div>","null","html-keyboard-response","360","574126","0.0-6.0-0.177","JOSC","1","m","rechts","24","","fixation","","","",""
"968","img/0_60.png","74","image-keyboard-response","361","575095","0.0-6.0-1.177","JOSC","1","m","rechts","24","","","object","j","0","true"
"null","<div style=""font-size:60px;"">+</div>","null","html-keyboard-response","362","575546","0.0-6.0-0.178","JOSC","1","m","rechts","24","","fixation","","","",""
"1066","img/120_330.png","74","image-keyboard-response","363","576612","0.0-6.0-1.178","JOSC","1","m","rechts","24","","","object","j","120","true"
"null","<div style=""font-size:60px;"">+</div>","null","html-keyboard-response","364","576964","0.0-6.0-0.179","JOSC","1","m","rechts","24","","fixation","","","",""
"1066","img/120_90.png","70","image-keyboard-response","365","578030","0.0-6.0-1.179","JOSC","1","m","rechts","24","","","object","f","120","true"
"null","<div style=""font-size:60px;"">+</div>","null","html-keyboard-response","366","578432","0.0-6.0-0.180","JOSC","1","m","rechts","24","","fixation","","","",""
"848","img/0_330.png","70","image-keyboard-response","367","579280","0.0-6.0-1.180","JOSC","1","m","rechts","24","","","object","f","0","true"
"null","<div style=""font-size:60px;"">+</div>","null","html-keyboard-response","368","579732","0.0-6.0-0.181","JOSC","1","m","rechts","24","","fixation","","","",""
"1170","img/150_180.png","70","image-keyboard-response","369","580903","0.0-6.0-1.181","JOSC","1","m","rechts","24","","","object","f","150","true"
"null","<div style=""font-size:60px;"">+</div>","null","html-keyboard-response","370","581305","0.0-6.0-0.182","JOSC","1","m","rechts","24","","fixation","","","",""
"1973","img/90_150.png","74","image-keyboard-response","371","583279","0.0-6.0-1.182","JOSC","1","m","rechts","24","","","object","j","90","true"
"null","<div style=""font-size:60px;"">+</div>","null","html-keyboard-response","372","583781","0.0-6.0-0.183","JOSC","1","m","rechts","24","","fixation","","","",""
"1361","img/150_60.png","70","image-keyboard-response","373","585143","0.0-6.0-1.183","JOSC","1","m","rechts","24","","","object","f","150","true"
"null","<div style=""font-size:60px;"">+</div>","null","html-keyboard-response","374","585495","0.0-6.0-0.184","JOSC","1","m","rechts","24","","fixation","","","",""
"1774","img/150_240.png","74","image-keyboard-response","375","587269","0.0-6.0-1.184","JOSC","1","m","rechts","24","","","object","j","150","true"
"null","<div style=""font-size:60px;"">+</div>","null","html-keyboard-response","376","587721","0.0-6.0-0.185","JOSC","1","m","rechts","24","","fixation","","","",""
"1404","img/90_60.png","70","image-keyboard-response","377","589126","0.0-6.0-1.185","JOSC","1","m","rechts","24","","","object","f","90","true"
"null","<div style=""font-size:60px;"">+</div>","null","html-keyboard-response","378","589528","0.0-6.0-0.186","JOSC","1","m","rechts","24","","fixation","","","",""
"1350","img/L120_180.png","74","image-keyboard-response","379","590879","0.0-6.0-1.186","JOSC","1","m","rechts","24","","","object","j","120","true"
"null","<div style=""font-size:60px;"">+</div>","null","html-keyboard-response","380","591180","0.0-6.0-0.187","JOSC","1","m","rechts","24","","fixation","","","",""
"1008","img/120_30.png","70","image-keyboard-response","381","592189","0.0-6.0-1.187","JOSC","1","m","rechts","24","","","object","f","120","true"
"null","<div style=""font-size:60px;"">+</div>","null","html-keyboard-response","382","592690","0.0-6.0-0.188","JOSC","1","m","rechts","24","","fixation","","","",""
"687","img/0_120.png","74","image-keyboard-response","383","593378","0.0-6.0-1.188","JOSC","1","m","rechts","24","","","object","j","0","true"
"null","<div style=""font-size:60px;"">+</div>","null","html-keyboard-response","384","593879","0.0-6.0-0.189","JOSC","1","m","rechts","24","","fixation","","","",""
"1690","img/60_180.png","70","image-keyboard-response","385","595571","0.0-6.0-1.189","JOSC","1","m","rechts","24","","","object","f","60","true"
"null","<div style=""font-size:60px;"">+</div>","null","html-keyboard-response","386","595872","0.0-6.0-0.190","JOSC","1","m","rechts","24","","fixation","","","",""
"1950","img/L150_180.png","74","image-keyboard-response","387","597823","0.0-6.0-1.190","JOSC","1","m","rechts","24","","","object","j","150","true"
"null","<div style=""font-size:60px;"">+</div>","null","html-keyboard-response","388","598325","0.0-6.0-0.191","JOSC","1","m","rechts","24","","fixation","","","",""
"2312","img/60_210.png","70","image-keyboard-response","389","600638","0.0-6.0-1.191","JOSC","1","m","rechts","24","","","object","f","60","true"
"null","<div style=""font-size:60px;"">+</div>","null","html-keyboard-response","390","600940","0.0-6.0-0.192","JOSC","1","m","rechts","24","","fixation","","","",""
"1493","img/60_90.png","74","image-keyboard-response","391","602433","0.0-6.0-1.192","JOSC","1","m","rechts","24","","","object","j","60","true"
"null","<div style=""font-size:60px;"">+</div>","null","html-keyboard-response","392","602735","0.0-6.0-0.193","JOSC","1","m","rechts","24","","fixation","","","",""
"1176","img/30_270.png","70","image-keyboard-response","393","603912","0.0-6.0-1.193","JOSC","1","m","rechts","24","","","object","f","30","true"
"null","<div style=""font-size:60px;"">+</div>","null","html-keyboard-response","394","604414","0.0-6.0-0.194","JOSC","1","m","rechts","24","","fixation","","","",""
"1459","img/150_270.png","74","image-keyboard-response","395","605873","0.0-6.0-1.194","JOSC","1","m","rechts","24","","","object","j","150","true"
"null","<div style=""font-size:60px;"">+</div>","null","html-keyboard-response","396","606274","0.0-6.0-0.195","JOSC","1","m","rechts","24","","fixation","","","",""
"919","img/0_30.png","74","image-keyboard-response","397","607194","0.0-6.0-1.195","JOSC","1","m","rechts","24","","","object","j","0","true"
"null","<div style=""font-size:60px;"">+</div>","null","html-keyboard-response","398","607496","0.0-6.0-0.196","JOSC","1","m","rechts","24","","fixation","","","",""
"1008","img/30_240.png","70","image-keyboard-response","399","608505","0.0-6.0-1.196","JOSC","1","m","rechts","24","","","object","f","30","true"
"null","<div style=""font-size:60px;"">+</div>","null","html-keyboard-response","400","609006","0.0-6.0-0.197","JOSC","1","m","rechts","24","","fixation","","","",""
"1194","img/L60_180.png","74","image-keyboard-response","401","610201","0.0-6.0-1.197","JOSC","1","m","rechts","24","","","object","j","60","true"
"null","<div style=""font-size:60px;"">+</div>","null","html-keyboard-response","402","610702","0.0-6.0-0.198","JOSC","1","m","rechts","24","","fixation","","","",""
"939","img/120_180.png","70","image-keyboard-response","403","611642","0.0-6.0-1.198","JOSC","1","m","rechts","24","","","object","f","120","true"
"null","<div style=""font-size:60px;"">+</div>","null","html-keyboard-response","404","612094","0.0-6.0-0.199","JOSC","1","m","rechts","24","","fixation","","","",""
"1620","img/150_120.png","70","image-keyboard-response","405","613715","0.0-6.0-1.199","JOSC","1","m","rechts","24","","","object","f","150","true"
"null","<div style=""font-size:60px;"">+</div>","null","html-keyboard-response","406","614017","0.0-6.0-0.200","JOSC","1","m","rechts","24","","fixation","","","",""
"1335","img/120_150.png","74","image-keyboard-response","407","615353","0.0-6.0-1.200","JOSC","1","m","rechts","24","","","object","j","120","true"
"null","<div style=""font-size:60px;"">+</div>","null","html-keyboard-response","408","615755","0.0-6.0-0.201","JOSC","1","m","rechts","24","","fixation","","","",""
"937","img/0_240.png","70","image-keyboard-response","409","616693","0.0-6.0-1.201","JOSC","1","m","rechts","24","","","object","f","0","true"
"null","<div style=""font-size:60px;"">+</div>","null","html-keyboard-response","410","617095","0.0-6.0-0.202","JOSC","1","m","rechts","24","","fixation","","","",""
"795","img/0_150.png","74","image-keyboard-response","411","617891","0.0-6.0-1.202","JOSC","1","m","rechts","24","","","object","j","0","true"
"null","<div style=""font-size:60px;"">+</div>","null","html-keyboard-response","412","618393","0.0-6.0-0.203","JOSC","1","m","rechts","24","","fixation","","","",""
"640","img/60_30.png","70","image-keyboard-response","413","619033","0.0-6.0-1.203","JOSC","1","m","rechts","24","","","object","f","60","true"
"null","<div style=""font-size:60px;"">+</div>","null","html-keyboard-response","414","619535","0.0-6.0-0.204","JOSC","1","m","rechts","24","","fixation","","","",""
"888","img/150_300.png","74","image-keyboard-response","415","620424","0.0-6.0-1.204","JOSC","1","m","rechts","24","","","object","j","150","true"
"null","<div style=""font-size:60px;"">+</div>","null","html-keyboard-response","416","620926","0.0-6.0-0.205","JOSC","1","m","rechts","24","","fixation","","","",""
"1304","img/90_240.png","74","image-keyboard-response","417","622230","0.0-6.0-1.205","JOSC","1","m","rechts","24","","","object","f","90","false"
"null","<div style=""font-size:60px;"">+</div>","null","html-keyboard-response","418","622632","0.0-6.0-0.206","JOSC","1","m","rechts","24","","fixation","","","",""
"1114","img/120_270.png","74","image-keyboard-response","419","623746","0.0-6.0-1.206","JOSC","1","m","rechts","24","","","object","j","120","true"
"null","<div style=""font-size:60px;"">+</div>","null","html-keyboard-response","420","624098","0.0-6.0-0.207","JOSC","1","m","rechts","24","","fixation","","","",""
"2175","img/90_210.png","70","image-keyboard-response","421","626273","0.0-6.0-1.207","JOSC","1","m","rechts","24","","","object","f","90","true"
"22721","<p>Du hast in 93% der Versuche korrekt entschieden.</p><p>Deine durchschnittliche Reaktionszeit war  1342ms.</p><p>Dr&uuml;cke eine beliebige Taste, um die Session zu beenden. Vielen Dank!</p>","74","html-keyboard-response","422","648995","0.0-7.0","JOSC","1","m","rechts","24","","","","","",""
