"rt","stimulus","key_press","trial_type","trial_index","time_elapsed","internal_node_id","subject","session","sex","handedness","age","responses","test_part","condition","correct_response","angle","correct"
"1748","<p>Mental Rotation Experiment.</p> <p>Dr&uuml;cke eine beliebige Taste, um anzufangen.</p>","70","html-keyboard-response","0","1751","0.0-0.0","JOSC","4","m","rechts","24","","","","","",""
"10857","","","survey-text","1","12611","0.0-1.0","JOSC","4","m","rechts","24","{""Q0"":""JOSC""}","","","","",""
"2974","","","survey-text","2","15587","0.0-2.0","JOSC","4","m","rechts","24","{""Q0"":""4""}","","","","",""
"3221","","","survey-multi-choice","3","18810","0.0-3.0","JOSC","4","m","rechts","24","{""Q0"":""m"",""Q1"":""rechts""}","","","","",""
"2796","","","survey-text","4","21607","0.0-4.0","JOSC","4","m","rechts","24","{""Q0"":""24""}","","","","",""
"9238","<p>Stell dir vor, dass du vor einem runden Tisch stehst, auf dem sich ein blauer Ball am Tischrand befindet. Entlang des Tischrands ist jeweils ein verschieden langer Pfeil. Nun bleibst du an deinem Platz vor dem Tisch und rotierst den Tisch entlang des Pfeils (gleiche Richtung und Länge). </p> <img src='img/30_180.png'></img> <br><p> Nachdem du diese (vorgestellte) Rotation durchgef&uuml;hrt hast, schau in Richtung der Tischmitte, und entscheide dann, ob der Ball links oder rechts von dir liegt.</p> <p>Dr&uuml;cke die <strong>'f'</strong>-Taste f&uuml;r links, die <strong>'j'</strong>-Taste f&uuml;r rechts.</p><br><p> Das Bild wird jeweils 1 Sekunde lang pr&auml;sentiert. Du hast 3 Sekunden Zeit eine Entscheidung zu treffen.</p>","74","html-keyboard-response","5","30847","0.0-5.0","JOSC","4","m","rechts","24","","","","","",""
"null","<div style=""font-size:60px;"">+</div>","null","html-keyboard-response","6","32252","0.0-6.0-0.0","JOSC","4","m","rechts","24","","fixation","","","",""
"1104","img/L60_180.png","74","image-keyboard-response","7","33357","0.0-6.0-1.0","JOSC","4","m","rechts","24","","","object","j","60","true"
"null","<div style=""font-size:60px;"">+</div>","null","html-keyboard-response","8","33709","0.0-6.0-0.1","JOSC","4","m","rechts","24","","fixation","","","",""
"812","img/0_270.png","70","image-keyboard-response","9","34522","0.0-6.0-1.1","JOSC","4","m","rechts","24","","","object","f","0","true"
"null","<div style=""font-size:60px;"">+</div>","null","html-keyboard-response","10","34824","0.0-6.0-0.2","JOSC","4","m","rechts","24","","fixation","","","",""
"733","img/L120_180.png","74","image-keyboard-response","11","35558","0.0-6.0-1.2","JOSC","4","m","rechts","24","","","object","j","120","true"
"null","<div style=""font-size:60px;"">+</div>","null","html-keyboard-response","12","35909","0.0-6.0-0.3","JOSC","4","m","rechts","24","","fixation","","","",""
"754","img/150_300.png","74","image-keyboard-response","13","36664","0.0-6.0-1.3","JOSC","4","m","rechts","24","","","object","j","150","true"
"null","<div style=""font-size:60px;"">+</div>","null","html-keyboard-response","14","37166","0.0-6.0-0.4","JOSC","4","m","rechts","24","","fixation","","","",""
"614","img/0_240.png","70","image-keyboard-response","15","37782","0.0-6.0-1.4","JOSC","4","m","rechts","24","","","object","f","0","true"
"null","<div style=""font-size:60px;"">+</div>","null","html-keyboard-response","16","38233","0.0-6.0-0.5","JOSC","4","m","rechts","24","","fixation","","","",""
"774","img/150_90.png","70","image-keyboard-response","17","39008","0.0-6.0-1.5","JOSC","4","m","rechts","24","","","object","f","150","true"
"null","<div style=""font-size:60px;"">+</div>","null","html-keyboard-response","18","39410","0.0-6.0-0.6","JOSC","4","m","rechts","24","","fixation","","","",""
"917","img/120_210.png","70","image-keyboard-response","19","40328","0.0-6.0-1.6","JOSC","4","m","rechts","24","","","object","f","120","true"
"null","<div style=""font-size:60px;"">+</div>","null","html-keyboard-response","20","40679","0.0-6.0-0.7","JOSC","4","m","rechts","24","","fixation","","","",""
"960","img/90_210.png","74","image-keyboard-response","21","41641","0.0-6.0-1.7","JOSC","4","m","rechts","24","","","object","f","90","false"
"null","<div style=""font-size:60px;"">+</div>","null","html-keyboard-response","22","41942","0.0-6.0-0.8","JOSC","4","m","rechts","24","","fixation","","","",""
"760","img/60_210.png","70","image-keyboard-response","23","42704","0.0-6.0-1.8","JOSC","4","m","rechts","24","","","object","f","60","true"
"null","<div style=""font-size:60px;"">+</div>","null","html-keyboard-response","24","43155","0.0-6.0-0.9","JOSC","4","m","rechts","24","","fixation","","","",""
"659","img/90_300.png","74","image-keyboard-response","25","43816","0.0-6.0-1.9","JOSC","4","m","rechts","24","","","object","j","90","true"
"null","<div style=""font-size:60px;"">+</div>","null","html-keyboard-response","26","44167","0.0-6.0-0.10","JOSC","4","m","rechts","24","","fixation","","","",""
"860","img/60_330.png","74","image-keyboard-response","27","45028","0.0-6.0-1.10","JOSC","4","m","rechts","24","","","object","j","60","true"
"null","<div style=""font-size:60px;"">+</div>","null","html-keyboard-response","28","45480","0.0-6.0-0.11","JOSC","4","m","rechts","24","","fixation","","","",""
"648","img/120_30.png","70","image-keyboard-response","29","46130","0.0-6.0-1.11","JOSC","4","m","rechts","24","","","object","f","120","true"
"null","<div style=""font-size:60px;"">+</div>","null","html-keyboard-response","30","46531","0.0-6.0-0.12","JOSC","4","m","rechts","24","","fixation","","","",""
"855","img/0_90.png","74","image-keyboard-response","31","47387","0.0-6.0-1.12","JOSC","4","m","rechts","24","","","object","j","0","true"
"null","<div style=""font-size:60px;"">+</div>","null","html-keyboard-response","32","47839","0.0-6.0-0.13","JOSC","4","m","rechts","24","","fixation","","","",""
"753","img/30_270.png","70","image-keyboard-response","33","48594","0.0-6.0-1.13","JOSC","4","m","rechts","24","","","object","f","30","true"
"null","<div style=""font-size:60px;"">+</div>","null","html-keyboard-response","34","48945","0.0-6.0-0.14","JOSC","4","m","rechts","24","","fixation","","","",""
"1238","img/90_120.png","74","image-keyboard-response","35","50184","0.0-6.0-1.14","JOSC","4","m","rechts","24","","","object","j","90","true"
"null","<div style=""font-size:60px;"">+</div>","null","html-keyboard-response","36","50486","0.0-6.0-0.15","JOSC","4","m","rechts","24","","fixation","","","",""
"671","img/0_210.png","70","image-keyboard-response","37","51158","0.0-6.0-1.15","JOSC","4","m","rechts","24","","","object","f","0","true"
"null","<div style=""font-size:60px;"">+</div>","null","html-keyboard-response","38","51560","0.0-6.0-0.16","JOSC","4","m","rechts","24","","fixation","","","",""
"881","img/30_90.png","74","image-keyboard-response","39","52442","0.0-6.0-1.16","JOSC","4","m","rechts","24","","","object","j","30","true"
"null","<div style=""font-size:60px;"">+</div>","null","html-keyboard-response","40","52944","0.0-6.0-0.17","JOSC","4","m","rechts","24","","fixation","","","",""
"887","img/90_150.png","74","image-keyboard-response","41","53832","0.0-6.0-1.17","JOSC","4","m","rechts","24","","","object","j","90","true"
"null","<div style=""font-size:60px;"">+</div>","null","html-keyboard-response","42","54134","0.0-6.0-0.18","JOSC","4","m","rechts","24","","fixation","","","",""
"715","img/120_330.png","74","image-keyboard-response","43","54851","0.0-6.0-1.18","JOSC","4","m","rechts","24","","","object","j","120","true"
"null","<div style=""font-size:60px;"">+</div>","null","html-keyboard-response","44","55253","0.0-6.0-0.19","JOSC","4","m","rechts","24","","fixation","","","",""
"962","img/L150_180.png","74","image-keyboard-response","45","56215","0.0-6.0-1.19","JOSC","4","m","rechts","24","","","object","j","150","true"
"null","<div style=""font-size:60px;"">+</div>","null","html-keyboard-response","46","56617","0.0-6.0-0.20","JOSC","4","m","rechts","24","","fixation","","","",""
"980","img/30_180.png","70","image-keyboard-response","47","57597","0.0-6.0-1.20","JOSC","4","m","rechts","24","","","object","f","30","true"
"null","<div style=""font-size:60px;"">+</div>","null","html-keyboard-response","48","57949","0.0-6.0-0.21","JOSC","4","m","rechts","24","","fixation","","","",""
"876","img/90_60.png","70","image-keyboard-response","49","58825","0.0-6.0-1.21","JOSC","4","m","rechts","24","","","object","f","90","true"
"null","<div style=""font-size:60px;"">+</div>","null","html-keyboard-response","50","59277","0.0-6.0-0.22","JOSC","4","m","rechts","24","","fixation","","","",""
"685","img/0_330.png","70","image-keyboard-response","51","59962","0.0-6.0-1.22","JOSC","4","m","rechts","24","","","object","f","0","true"
"null","<div style=""font-size:60px;"">+</div>","null","html-keyboard-response","52","60364","0.0-6.0-0.23","JOSC","4","m","rechts","24","","fixation","","","",""
"943","img/90_180.png","70","image-keyboard-response","53","61308","0.0-6.0-1.23","JOSC","4","m","rechts","24","","","object","f","90","true"
"null","<div style=""font-size:60px;"">+</div>","null","html-keyboard-response","54","61810","0.0-6.0-0.24","JOSC","4","m","rechts","24","","fixation","","","",""
"944","img/150_270.png","74","image-keyboard-response","55","62754","0.0-6.0-1.24","JOSC","4","m","rechts","24","","","object","j","150","true"
"null","<div style=""font-size:60px;"">+</div>","null","html-keyboard-response","56","63106","0.0-6.0-0.25","JOSC","4","m","rechts","24","","fixation","","","",""
"1239","img/120_150.png","70","image-keyboard-response","57","64346","0.0-6.0-1.25","JOSC","4","m","rechts","24","","","object","j","120","false"
"null","<div style=""font-size:60px;"">+</div>","null","html-keyboard-response","58","64697","0.0-6.0-0.26","JOSC","4","m","rechts","24","","fixation","","","",""
"725","img/0_300.png","70","image-keyboard-response","59","65423","0.0-6.0-1.26","JOSC","4","m","rechts","24","","","object","f","0","true"
"null","<div style=""font-size:60px;"">+</div>","null","html-keyboard-response","60","65875","0.0-6.0-0.27","JOSC","4","m","rechts","24","","fixation","","","",""
"673","img/90_30.png","70","image-keyboard-response","61","66549","0.0-6.0-1.27","JOSC","4","m","rechts","24","","","object","f","90","true"
"null","<div style=""font-size:60px;"">+</div>","null","html-keyboard-response","62","66851","0.0-6.0-0.28","JOSC","4","m","rechts","24","","fixation","","","",""
"1253","img/60_270.png","70","image-keyboard-response","63","68104","0.0-6.0-1.28","JOSC","4","m","rechts","24","","","object","f","60","true"
"null","<div style=""font-size:60px;"">+</div>","null","html-keyboard-response","64","68506","0.0-6.0-0.29","JOSC","4","m","rechts","24","","fixation","","","",""
"853","img/L90_180.png","74","image-keyboard-response","65","69359","0.0-6.0-1.29","JOSC","4","m","rechts","24","","","object","j","90","true"
"null","<div style=""font-size:60px;"">+</div>","null","html-keyboard-response","66","69761","0.0-6.0-0.30","JOSC","4","m","rechts","24","","fixation","","","",""
"763","img/60_150.png","74","image-keyboard-response","67","70525","0.0-6.0-1.30","JOSC","4","m","rechts","24","","","object","j","60","true"
"null","<div style=""font-size:60px;"">+</div>","null","html-keyboard-response","68","70827","0.0-6.0-0.31","JOSC","4","m","rechts","24","","fixation","","","",""
"841","img/30_240.png","70","image-keyboard-response","69","71668","0.0-6.0-1.31","JOSC","4","m","rechts","24","","","object","f","30","true"
"null","<div style=""font-size:60px;"">+</div>","null","html-keyboard-response","70","72019","0.0-6.0-0.32","JOSC","4","m","rechts","24","","fixation","","","",""
"1844","img/120_90.png","70","image-keyboard-response","71","73865","0.0-6.0-1.32","JOSC","4","m","rechts","24","","","object","f","120","true"
"null","<div style=""font-size:60px;"">+</div>","null","html-keyboard-response","72","74366","0.0-6.0-0.33","JOSC","4","m","rechts","24","","fixation","","","",""
"647","img/0_150.png","74","image-keyboard-response","73","75014","0.0-6.0-1.33","JOSC","4","m","rechts","24","","","object","j","0","true"
"null","<div style=""font-size:60px;"">+</div>","null","html-keyboard-response","74","75465","0.0-6.0-0.34","JOSC","4","m","rechts","24","","fixation","","","",""
"844","img/60_90.png","74","image-keyboard-response","75","76310","0.0-6.0-1.34","JOSC","4","m","rechts","24","","","object","j","60","true"
"null","<div style=""font-size:60px;"">+</div>","null","html-keyboard-response","76","76812","0.0-6.0-0.35","JOSC","4","m","rechts","24","","fixation","","","",""
"636","img/60_30.png","70","image-keyboard-response","77","77450","0.0-6.0-1.35","JOSC","4","m","rechts","24","","","object","f","60","true"
"null","<div style=""font-size:60px;"">+</div>","null","html-keyboard-response","78","77851","0.0-6.0-0.36","JOSC","4","m","rechts","24","","fixation","","","",""
"979","img/120_270.png","74","image-keyboard-response","79","78830","0.0-6.0-1.36","JOSC","4","m","rechts","24","","","object","j","120","true"
"null","<div style=""font-size:60px;"">+</div>","null","html-keyboard-response","80","79181","0.0-6.0-0.37","JOSC","4","m","rechts","24","","fixation","","","",""
"1078","img/150_120.png","70","image-keyboard-response","81","80260","0.0-6.0-1.37","JOSC","4","m","rechts","24","","","object","f","150","true"
"null","<div style=""font-size:60px;"">+</div>","null","html-keyboard-response","82","80761","0.0-6.0-0.38","JOSC","4","m","rechts","24","","fixation","","","",""
"840","img/0_30.png","74","image-keyboard-response","83","81602","0.0-6.0-1.38","JOSC","4","m","rechts","24","","","object","j","0","true"
"null","<div style=""font-size:60px;"">+</div>","null","html-keyboard-response","84","82104","0.0-6.0-0.39","JOSC","4","m","rechts","24","","fixation","","","",""
"1164","img/150_240.png","74","image-keyboard-response","85","83270","0.0-6.0-1.39","JOSC","4","m","rechts","24","","","object","j","150","true"
"null","<div style=""font-size:60px;"">+</div>","null","html-keyboard-response","86","83721","0.0-6.0-0.40","JOSC","4","m","rechts","24","","fixation","","","",""
"940","img/30_300.png","70","image-keyboard-response","87","84663","0.0-6.0-1.40","JOSC","4","m","rechts","24","","","object","f","30","true"
"null","<div style=""font-size:60px;"">+</div>","null","html-keyboard-response","88","85013","0.0-6.0-0.41","JOSC","4","m","rechts","24","","fixation","","","",""
"807","img/0_120.png","74","image-keyboard-response","89","85821","0.0-6.0-1.41","JOSC","4","m","rechts","24","","","object","j","0","true"
"null","<div style=""font-size:60px;"">+</div>","null","html-keyboard-response","90","86123","0.0-6.0-0.42","JOSC","4","m","rechts","24","","fixation","","","",""
"650","img/0_60.png","74","image-keyboard-response","91","86775","0.0-6.0-1.42","JOSC","4","m","rechts","24","","","object","j","0","true"
"null","<div style=""font-size:60px;"">+</div>","null","html-keyboard-response","92","87226","0.0-6.0-0.43","JOSC","4","m","rechts","24","","fixation","","","",""
"828","img/L30_180.png","74","image-keyboard-response","93","88056","0.0-6.0-1.43","JOSC","4","m","rechts","24","","","object","j","30","true"
"null","<div style=""font-size:60px;"">+</div>","null","html-keyboard-response","94","88557","0.0-6.0-0.44","JOSC","4","m","rechts","24","","fixation","","","",""
"915","img/150_180.png","70","image-keyboard-response","95","89473","0.0-6.0-1.44","JOSC","4","m","rechts","24","","","object","f","150","true"
"null","<div style=""font-size:60px;"">+</div>","null","html-keyboard-response","96","89875","0.0-6.0-0.45","JOSC","4","m","rechts","24","","fixation","","","",""
"801","img/150_60.png","70","image-keyboard-response","97","90677","0.0-6.0-1.45","JOSC","4","m","rechts","24","","","object","f","150","true"
"null","<div style=""font-size:60px;"">+</div>","null","html-keyboard-response","98","90979","0.0-6.0-0.46","JOSC","4","m","rechts","24","","fixation","","","",""
"699","img/90_330.png","74","image-keyboard-response","99","91679","0.0-6.0-1.46","JOSC","4","m","rechts","24","","","object","j","90","true"
"null","<div style=""font-size:60px;"">+</div>","null","html-keyboard-response","100","92131","0.0-6.0-0.47","JOSC","4","m","rechts","24","","fixation","","","",""
"867","img/30_120.png","74","image-keyboard-response","101","92999","0.0-6.0-1.47","JOSC","4","m","rechts","24","","","object","j","30","true"
"null","<div style=""font-size:60px;"">+</div>","null","html-keyboard-response","102","93351","0.0-6.0-0.48","JOSC","4","m","rechts","24","","fixation","","","",""
"827","img/60_180.png","70","image-keyboard-response","103","94179","0.0-6.0-1.48","JOSC","4","m","rechts","24","","","object","f","60","true"
"null","<div style=""font-size:60px;"">+</div>","null","html-keyboard-response","104","94630","0.0-6.0-0.49","JOSC","4","m","rechts","24","","fixation","","","",""
"809","img/90_240.png","70","image-keyboard-response","105","95440","0.0-6.0-1.49","JOSC","4","m","rechts","24","","","object","f","90","true"
"null","<div style=""font-size:60px;"">+</div>","null","html-keyboard-response","106","95792","0.0-6.0-0.50","JOSC","4","m","rechts","24","","fixation","","","",""
"1071","img/120_180.png","70","image-keyboard-response","107","96864","0.0-6.0-1.50","JOSC","4","m","rechts","24","","","object","f","120","true"
"null","<div style=""font-size:60px;"">+</div>","null","html-keyboard-response","108","97366","0.0-6.0-0.51","JOSC","4","m","rechts","24","","fixation","","","",""
"1066","img/30_60.png","74","image-keyboard-response","109","98432","0.0-6.0-1.51","JOSC","4","m","rechts","24","","","object","j","30","true"
"null","<div style=""font-size:60px;"">+</div>","null","html-keyboard-response","110","98834","0.0-6.0-0.52","JOSC","4","m","rechts","24","","fixation","","","",""
"641","img/0_120.png","74","image-keyboard-response","111","99475","0.0-6.0-1.52","JOSC","4","m","rechts","24","","","object","j","0","true"
"null","<div style=""font-size:60px;"">+</div>","null","html-keyboard-response","112","99776","0.0-6.0-0.53","JOSC","4","m","rechts","24","","fixation","","","",""
"981","img/150_270.png","74","image-keyboard-response","113","100757","0.0-6.0-1.53","JOSC","4","m","rechts","24","","","object","j","150","true"
"null","<div style=""font-size:60px;"">+</div>","null","html-keyboard-response","114","101109","0.0-6.0-0.54","JOSC","4","m","rechts","24","","fixation","","","",""
"805","img/60_210.png","70","image-keyboard-response","115","101914","0.0-6.0-1.54","JOSC","4","m","rechts","24","","","object","f","60","true"
"null","<div style=""font-size:60px;"">+</div>","null","html-keyboard-response","116","102266","0.0-6.0-0.55","JOSC","4","m","rechts","24","","fixation","","","",""
"865","img/30_240.png","70","image-keyboard-response","117","103131","0.0-6.0-1.55","JOSC","4","m","rechts","24","","","object","f","30","true"
"null","<div style=""font-size:60px;"">+</div>","null","html-keyboard-response","118","103433","0.0-6.0-0.56","JOSC","4","m","rechts","24","","fixation","","","",""
"1578","img/150_120.png","70","image-keyboard-response","119","105011","0.0-6.0-1.56","JOSC","4","m","rechts","24","","","object","f","150","true"
"null","<div style=""font-size:60px;"">+</div>","null","html-keyboard-response","120","105313","0.0-6.0-0.57","JOSC","4","m","rechts","24","","fixation","","","",""
"983","img/L60_180.png","74","image-keyboard-response","121","106296","0.0-6.0-1.57","JOSC","4","m","rechts","24","","","object","j","60","true"
"null","<div style=""font-size:60px;"">+</div>","null","html-keyboard-response","122","106698","0.0-6.0-0.58","JOSC","4","m","rechts","24","","fixation","","","",""
"979","img/90_120.png","74","image-keyboard-response","123","107677","0.0-6.0-1.58","JOSC","4","m","rechts","24","","","object","j","90","true"
"null","<div style=""font-size:60px;"">+</div>","null","html-keyboard-response","124","108179","0.0-6.0-0.59","JOSC","4","m","rechts","24","","fixation","","","",""
"948","img/L120_180.png","74","image-keyboard-response","125","109127","0.0-6.0-1.59","JOSC","4","m","rechts","24","","","object","j","120","true"
"null","<div style=""font-size:60px;"">+</div>","null","html-keyboard-response","126","109479","0.0-6.0-0.60","JOSC","4","m","rechts","24","","fixation","","","",""
"1869","img/90_30.png","70","image-keyboard-response","127","111348","0.0-6.0-1.60","JOSC","4","m","rechts","24","","","object","f","90","true"
"null","<div style=""font-size:60px;"">+</div>","null","html-keyboard-response","128","111699","0.0-6.0-0.61","JOSC","4","m","rechts","24","","fixation","","","",""
"1281","img/120_270.png","74","image-keyboard-response","129","112981","0.0-6.0-1.61","JOSC","4","m","rechts","24","","","object","j","120","true"
"null","<div style=""font-size:60px;"">+</div>","null","html-keyboard-response","130","113482","0.0-6.0-0.62","JOSC","4","m","rechts","24","","fixation","","","",""
"871","img/150_90.png","70","image-keyboard-response","131","114354","0.0-6.0-1.62","JOSC","4","m","rechts","24","","","object","f","150","true"
"null","<div style=""font-size:60px;"">+</div>","null","html-keyboard-response","132","114855","0.0-6.0-0.63","JOSC","4","m","rechts","24","","fixation","","","",""
"1090","img/150_180.png","70","image-keyboard-response","133","115947","0.0-6.0-1.63","JOSC","4","m","rechts","24","","","object","f","150","true"
"null","<div style=""font-size:60px;"">+</div>","null","html-keyboard-response","134","116397","0.0-6.0-0.64","JOSC","4","m","rechts","24","","fixation","","","",""
"810","img/30_90.png","74","image-keyboard-response","135","117208","0.0-6.0-1.64","JOSC","4","m","rechts","24","","","object","j","30","true"
"null","<div style=""font-size:60px;"">+</div>","null","html-keyboard-response","136","117659","0.0-6.0-0.65","JOSC","4","m","rechts","24","","fixation","","","",""
"961","img/90_60.png","70","image-keyboard-response","137","118621","0.0-6.0-1.65","JOSC","4","m","rechts","24","","","object","f","90","true"
"null","<div style=""font-size:60px;"">+</div>","null","html-keyboard-response","138","119072","0.0-6.0-0.66","JOSC","4","m","rechts","24","","fixation","","","",""
"914","img/60_150.png","74","image-keyboard-response","139","119987","0.0-6.0-1.66","JOSC","4","m","rechts","24","","","object","j","60","true"
"null","<div style=""font-size:60px;"">+</div>","null","html-keyboard-response","140","120439","0.0-6.0-0.67","JOSC","4","m","rechts","24","","fixation","","","",""
"842","img/120_180.png","70","image-keyboard-response","141","121281","0.0-6.0-1.67","JOSC","4","m","rechts","24","","","object","f","120","true"
"null","<div style=""font-size:60px;"">+</div>","null","html-keyboard-response","142","121583","0.0-6.0-0.68","JOSC","4","m","rechts","24","","fixation","","","",""
"1226","img/150_300.png","74","image-keyboard-response","143","122809","0.0-6.0-1.68","JOSC","4","m","rechts","24","","","object","j","150","true"
"null","<div style=""font-size:60px;"">+</div>","null","html-keyboard-response","144","123161","0.0-6.0-0.69","JOSC","4","m","rechts","24","","fixation","","","",""
"1580","img/90_180.png","70","image-keyboard-response","145","124742","0.0-6.0-1.69","JOSC","4","m","rechts","24","","","object","f","90","true"
"null","<div style=""font-size:60px;"">+</div>","null","html-keyboard-response","146","125244","0.0-6.0-0.70","JOSC","4","m","rechts","24","","fixation","","","",""
"1739","img/90_210.png","70","image-keyboard-response","147","126985","0.0-6.0-1.70","JOSC","4","m","rechts","24","","","object","f","90","true"
"null","<div style=""font-size:60px;"">+</div>","null","html-keyboard-response","148","127335","0.0-6.0-0.71","JOSC","4","m","rechts","24","","fixation","","","",""
"799","img/L30_180.png","74","image-keyboard-response","149","128135","0.0-6.0-1.71","JOSC","4","m","rechts","24","","","object","j","30","true"
"null","<div style=""font-size:60px;"">+</div>","null","html-keyboard-response","150","128487","0.0-6.0-0.72","JOSC","4","m","rechts","24","","fixation","","","",""
"750","img/0_270.png","70","image-keyboard-response","151","129238","0.0-6.0-1.72","JOSC","4","m","rechts","24","","","object","f","0","true"
"null","<div style=""font-size:60px;"">+</div>","null","html-keyboard-response","152","129740","0.0-6.0-0.73","JOSC","4","m","rechts","24","","fixation","","","",""
"897","img/60_90.png","74","image-keyboard-response","153","130637","0.0-6.0-1.73","JOSC","4","m","rechts","24","","","object","j","60","true"
"null","<div style=""font-size:60px;"">+</div>","null","html-keyboard-response","154","130939","0.0-6.0-0.74","JOSC","4","m","rechts","24","","fixation","","","",""
"804","img/30_120.png","74","image-keyboard-response","155","131744","0.0-6.0-1.74","JOSC","4","m","rechts","24","","","object","j","30","true"
"null","<div style=""font-size:60px;"">+</div>","null","html-keyboard-response","156","132096","0.0-6.0-0.75","JOSC","4","m","rechts","24","","fixation","","","",""
"943","img/L150_180.png","70","image-keyboard-response","157","133040","0.0-6.0-1.75","JOSC","4","m","rechts","24","","","object","j","150","false"
"null","<div style=""font-size:60px;"">+</div>","null","html-keyboard-response","158","133542","0.0-6.0-0.76","JOSC","4","m","rechts","24","","fixation","","","",""
"1361","img/120_90.png","70","image-keyboard-response","159","134904","0.0-6.0-1.76","JOSC","4","m","rechts","24","","","object","f","120","true"
"null","<div style=""font-size:60px;"">+</div>","null","html-keyboard-response","160","135355","0.0-6.0-0.77","JOSC","4","m","rechts","24","","fixation","","","",""
"624","img/0_150.png","74","image-keyboard-response","161","135980","0.0-6.0-1.77","JOSC","4","m","rechts","24","","","object","j","0","true"
"null","<div style=""font-size:60px;"">+</div>","null","html-keyboard-response","162","136482","0.0-6.0-0.78","JOSC","4","m","rechts","24","","fixation","","","",""
"733","img/90_330.png","74","image-keyboard-response","163","137215","0.0-6.0-1.78","JOSC","4","m","rechts","24","","","object","j","90","true"
"null","<div style=""font-size:60px;"">+</div>","null","html-keyboard-response","164","137617","0.0-6.0-0.79","JOSC","4","m","rechts","24","","fixation","","","",""
"610","img/60_330.png","74","image-keyboard-response","165","138227","0.0-6.0-1.79","JOSC","4","m","rechts","24","","","object","j","60","true"
"null","<div style=""font-size:60px;"">+</div>","null","html-keyboard-response","166","138628","0.0-6.0-0.80","JOSC","4","m","rechts","24","","fixation","","","",""
"643","img/60_30.png","70","image-keyboard-response","167","139271","0.0-6.0-1.80","JOSC","4","m","rechts","24","","","object","f","60","true"
"null","<div style=""font-size:60px;"">+</div>","null","html-keyboard-response","168","139673","0.0-6.0-0.81","JOSC","4","m","rechts","24","","fixation","","","",""
"661","img/0_330.png","70","image-keyboard-response","169","140334","0.0-6.0-1.81","JOSC","4","m","rechts","24","","","object","f","0","true"
"null","<div style=""font-size:60px;"">+</div>","null","html-keyboard-response","170","140786","0.0-6.0-0.82","JOSC","4","m","rechts","24","","fixation","","","",""
"741","img/30_180.png","70","image-keyboard-response","171","141527","0.0-6.0-1.82","JOSC","4","m","rechts","24","","","object","f","30","true"
"null","<div style=""font-size:60px;"">+</div>","null","html-keyboard-response","172","142028","0.0-6.0-0.83","JOSC","4","m","rechts","24","","fixation","","","",""
"814","img/150_240.png","74","image-keyboard-response","173","142843","0.0-6.0-1.83","JOSC","4","m","rechts","24","","","object","j","150","true"
"null","<div style=""font-size:60px;"">+</div>","null","html-keyboard-response","174","143345","0.0-6.0-0.84","JOSC","4","m","rechts","24","","fixation","","","",""
"759","img/30_300.png","70","image-keyboard-response","175","144104","0.0-6.0-1.84","JOSC","4","m","rechts","24","","","object","f","30","true"
"null","<div style=""font-size:60px;"">+</div>","null","html-keyboard-response","176","144556","0.0-6.0-0.85","JOSC","4","m","rechts","24","","fixation","","","",""
"783","img/0_90.png","74","image-keyboard-response","177","145339","0.0-6.0-1.85","JOSC","4","m","rechts","24","","","object","j","0","true"
"null","<div style=""font-size:60px;"">+</div>","null","html-keyboard-response","178","145691","0.0-6.0-0.86","JOSC","4","m","rechts","24","","fixation","","","",""
"850","img/60_180.png","70","image-keyboard-response","179","146541","0.0-6.0-1.86","JOSC","4","m","rechts","24","","","object","f","60","true"
"null","<div style=""font-size:60px;"">+</div>","null","html-keyboard-response","180","146993","0.0-6.0-0.87","JOSC","4","m","rechts","24","","fixation","","","",""
"940","img/60_270.png","70","image-keyboard-response","181","147933","0.0-6.0-1.87","JOSC","4","m","rechts","24","","","object","f","60","true"
"null","<div style=""font-size:60px;"">+</div>","null","html-keyboard-response","182","148285","0.0-6.0-0.88","JOSC","4","m","rechts","24","","fixation","","","",""
"951","img/L90_180.png","74","image-keyboard-response","183","149236","0.0-6.0-1.88","JOSC","4","m","rechts","24","","","object","j","90","true"
"null","<div style=""font-size:60px;"">+</div>","null","html-keyboard-response","184","149637","0.0-6.0-0.89","JOSC","4","m","rechts","24","","fixation","","","",""
"805","img/120_330.png","74","image-keyboard-response","185","150443","0.0-6.0-1.89","JOSC","4","m","rechts","24","","","object","j","120","true"
"null","<div style=""font-size:60px;"">+</div>","null","html-keyboard-response","186","150794","0.0-6.0-0.90","JOSC","4","m","rechts","24","","fixation","","","",""
"1068","img/90_240.png","70","image-keyboard-response","187","151863","0.0-6.0-1.90","JOSC","4","m","rechts","24","","","object","f","90","true"
"null","<div style=""font-size:60px;"">+</div>","null","html-keyboard-response","188","152164","0.0-6.0-0.91","JOSC","4","m","rechts","24","","fixation","","","",""
"747","img/0_210.png","70","image-keyboard-response","189","152912","0.0-6.0-1.91","JOSC","4","m","rechts","24","","","object","f","0","true"
"null","<div style=""font-size:60px;"">+</div>","null","html-keyboard-response","190","153214","0.0-6.0-0.92","JOSC","4","m","rechts","24","","fixation","","","",""
"575","img/0_300.png","70","image-keyboard-response","191","153789","0.0-6.0-1.92","JOSC","4","m","rechts","24","","","object","f","0","true"
"null","<div style=""font-size:60px;"">+</div>","null","html-keyboard-response","192","154190","0.0-6.0-0.93","JOSC","4","m","rechts","24","","fixation","","","",""
"761","img/0_60.png","74","image-keyboard-response","193","154952","0.0-6.0-1.93","JOSC","4","m","rechts","24","","","object","j","0","true"
"null","<div style=""font-size:60px;"">+</div>","null","html-keyboard-response","194","155404","0.0-6.0-0.94","JOSC","4","m","rechts","24","","fixation","","","",""
"786","img/30_270.png","70","image-keyboard-response","195","156191","0.0-6.0-1.94","JOSC","4","m","rechts","24","","","object","f","30","true"
"null","<div style=""font-size:60px;"">+</div>","null","html-keyboard-response","196","156692","0.0-6.0-0.95","JOSC","4","m","rechts","24","","fixation","","","",""
"773","img/120_30.png","70","image-keyboard-response","197","157467","0.0-6.0-1.95","JOSC","4","m","rechts","24","","","object","f","120","true"
"null","<div style=""font-size:60px;"">+</div>","null","html-keyboard-response","198","157768","0.0-6.0-0.96","JOSC","4","m","rechts","24","","fixation","","","",""
"1006","img/120_150.png","74","image-keyboard-response","199","158775","0.0-6.0-1.96","JOSC","4","m","rechts","24","","","object","j","120","true"
"null","<div style=""font-size:60px;"">+</div>","null","html-keyboard-response","200","159076","0.0-6.0-0.97","JOSC","4","m","rechts","24","","fixation","","","",""
"1090","img/90_150.png","74","image-keyboard-response","201","160168","0.0-6.0-1.97","JOSC","4","m","rechts","24","","","object","j","90","true"
"null","<div style=""font-size:60px;"">+</div>","null","html-keyboard-response","202","160569","0.0-6.0-0.98","JOSC","4","m","rechts","24","","fixation","","","",""
"914","img/150_60.png","70","image-keyboard-response","203","161485","0.0-6.0-1.98","JOSC","4","m","rechts","24","","","object","f","150","true"
"null","<div style=""font-size:60px;"">+</div>","null","html-keyboard-response","204","161986","0.0-6.0-0.99","JOSC","4","m","rechts","24","","fixation","","","",""
"1058","img/0_240.png","70","image-keyboard-response","205","163046","0.0-6.0-1.99","JOSC","4","m","rechts","24","","","object","f","0","true"
"null","<div style=""font-size:60px;"">+</div>","null","html-keyboard-response","206","163347","0.0-6.0-0.100","JOSC","4","m","rechts","24","","fixation","","","",""
"648","img/0_30.png","74","image-keyboard-response","207","163997","0.0-6.0-1.100","JOSC","4","m","rechts","24","","","object","j","0","true"
"null","<div style=""font-size:60px;"">+</div>","null","html-keyboard-response","208","164498","0.0-6.0-0.101","JOSC","4","m","rechts","24","","fixation","","","",""
"952","img/90_300.png","74","image-keyboard-response","209","165452","0.0-6.0-1.101","JOSC","4","m","rechts","24","","","object","j","90","true"
"null","<div style=""font-size:60px;"">+</div>","null","html-keyboard-response","210","165753","0.0-6.0-0.102","JOSC","4","m","rechts","24","","fixation","","","",""
"918","img/30_60.png","74","image-keyboard-response","211","166672","0.0-6.0-1.102","JOSC","4","m","rechts","24","","","object","j","30","true"
"null","<div style=""font-size:60px;"">+</div>","null","html-keyboard-response","212","167024","0.0-6.0-0.103","JOSC","4","m","rechts","24","","fixation","","","",""
"765","img/120_210.png","70","image-keyboard-response","213","167790","0.0-6.0-1.103","JOSC","4","m","rechts","24","","","object","f","120","true"
"null","<div style=""font-size:60px;"">+</div>","null","html-keyboard-response","214","168192","0.0-6.0-0.104","JOSC","4","m","rechts","24","","fixation","","","",""
"733","img/120_30.png","70","image-keyboard-response","215","168926","0.0-6.0-1.104","JOSC","4","m","rechts","24","","","object","f","120","true"
"null","<div style=""font-size:60px;"">+</div>","null","html-keyboard-response","216","169228","0.0-6.0-0.105","JOSC","4","m","rechts","24","","fixation","","","",""
"981","img/90_210.png","70","image-keyboard-response","217","170210","0.0-6.0-1.105","JOSC","4","m","rechts","24","","","object","f","90","true"
"null","<div style=""font-size:60px;"">+</div>","null","html-keyboard-response","218","170562","0.0-6.0-0.106","JOSC","4","m","rechts","24","","fixation","","","",""
"918","img/30_90.png","74","image-keyboard-response","219","171480","0.0-6.0-1.106","JOSC","4","m","rechts","24","","","object","j","30","true"
"null","<div style=""font-size:60px;"">+</div>","null","html-keyboard-response","220","171982","0.0-6.0-0.107","JOSC","4","m","rechts","24","","fixation","","","",""
"831","img/0_300.png","70","image-keyboard-response","221","172813","0.0-6.0-1.107","JOSC","4","m","rechts","24","","","object","f","0","true"
"null","<div style=""font-size:60px;"">+</div>","null","html-keyboard-response","222","173265","0.0-6.0-0.108","JOSC","4","m","rechts","24","","fixation","","","",""
"874","img/60_210.png","70","image-keyboard-response","223","174140","0.0-6.0-1.108","JOSC","4","m","rechts","24","","","object","f","60","true"
"null","<div style=""font-size:60px;"">+</div>","null","html-keyboard-response","224","174542","0.0-6.0-0.109","JOSC","4","m","rechts","24","","fixation","","","",""
"896","img/30_180.png","70","image-keyboard-response","225","175439","0.0-6.0-1.109","JOSC","4","m","rechts","24","","","object","f","30","true"
"null","<div style=""font-size:60px;"">+</div>","null","html-keyboard-response","226","175791","0.0-6.0-0.110","JOSC","4","m","rechts","24","","fixation","","","",""
"1076","img/30_120.png","74","image-keyboard-response","227","176867","0.0-6.0-1.110","JOSC","4","m","rechts","24","","","object","j","30","true"
"null","<div style=""font-size:60px;"">+</div>","null","html-keyboard-response","228","177218","0.0-6.0-0.111","JOSC","4","m","rechts","24","","fixation","","","",""
"911","img/150_180.png","70","image-keyboard-response","229","178130","0.0-6.0-1.111","JOSC","4","m","rechts","24","","","object","f","150","true"
"null","<div style=""font-size:60px;"">+</div>","null","html-keyboard-response","230","178432","0.0-6.0-0.112","JOSC","4","m","rechts","24","","fixation","","","",""
"935","img/L60_180.png","74","image-keyboard-response","231","179368","0.0-6.0-1.112","JOSC","4","m","rechts","24","","","object","j","60","true"
"null","<div style=""font-size:60px;"">+</div>","null","html-keyboard-response","232","179870","0.0-6.0-0.113","JOSC","4","m","rechts","24","","fixation","","","",""
"773","img/150_60.png","70","image-keyboard-response","233","180643","0.0-6.0-1.113","JOSC","4","m","rechts","24","","","object","f","150","true"
"null","<div style=""font-size:60px;"">+</div>","null","html-keyboard-response","234","180995","0.0-6.0-0.114","JOSC","4","m","rechts","24","","fixation","","","",""
"706","img/0_90.png","74","image-keyboard-response","235","181701","0.0-6.0-1.114","JOSC","4","m","rechts","24","","","object","j","0","true"
"null","<div style=""font-size:60px;"">+</div>","null","html-keyboard-response","236","182103","0.0-6.0-0.115","JOSC","4","m","rechts","24","","fixation","","","",""
"804","img/60_90.png","74","image-keyboard-response","237","182907","0.0-6.0-1.115","JOSC","4","m","rechts","24","","","object","j","60","true"
"null","<div style=""font-size:60px;"">+</div>","null","html-keyboard-response","238","183209","0.0-6.0-0.116","JOSC","4","m","rechts","24","","fixation","","","",""
"941","img/0_270.png","70","image-keyboard-response","239","184150","0.0-6.0-1.116","JOSC","4","m","rechts","24","","","object","f","0","true"
"null","<div style=""font-size:60px;"">+</div>","null","html-keyboard-response","240","184551","0.0-6.0-0.117","JOSC","4","m","rechts","24","","fixation","","","",""
"804","img/90_180.png","70","image-keyboard-response","241","185355","0.0-6.0-1.117","JOSC","4","m","rechts","24","","","object","f","90","true"
"null","<div style=""font-size:60px;"">+</div>","null","html-keyboard-response","242","185757","0.0-6.0-0.118","JOSC","4","m","rechts","24","","fixation","","","",""
"821","img/0_330.png","70","image-keyboard-response","243","186578","0.0-6.0-1.118","JOSC","4","m","rechts","24","","","object","f","0","true"
"null","<div style=""font-size:60px;"">+</div>","null","html-keyboard-response","244","186930","0.0-6.0-0.119","JOSC","4","m","rechts","24","","fixation","","","",""
"627","img/90_30.png","70","image-keyboard-response","245","187558","0.0-6.0-1.119","JOSC","4","m","rechts","24","","","object","f","90","true"
"null","<div style=""font-size:60px;"">+</div>","null","html-keyboard-response","246","188009","0.0-6.0-0.120","JOSC","4","m","rechts","24","","fixation","","","",""
"686","img/90_300.png","74","image-keyboard-response","247","188696","0.0-6.0-1.120","JOSC","4","m","rechts","24","","","object","j","90","true"
"null","<div style=""font-size:60px;"">+</div>","null","html-keyboard-response","248","189148","0.0-6.0-0.121","JOSC","4","m","rechts","24","","fixation","","","",""
"815","img/120_150.png","74","image-keyboard-response","249","189963","0.0-6.0-1.121","JOSC","4","m","rechts","24","","","object","j","120","true"
"null","<div style=""font-size:60px;"">+</div>","null","html-keyboard-response","250","190264","0.0-6.0-0.122","JOSC","4","m","rechts","24","","fixation","","","",""
"701","img/90_330.png","74","image-keyboard-response","251","190966","0.0-6.0-1.122","JOSC","4","m","rechts","24","","","object","j","90","true"
"null","<div style=""font-size:60px;"">+</div>","null","html-keyboard-response","252","191367","0.0-6.0-0.123","JOSC","4","m","rechts","24","","fixation","","","",""
"733","img/120_180.png","70","image-keyboard-response","253","192101","0.0-6.0-1.123","JOSC","4","m","rechts","24","","","object","f","120","true"
"null","<div style=""font-size:60px;"">+</div>","null","html-keyboard-response","254","192602","0.0-6.0-0.124","JOSC","4","m","rechts","24","","fixation","","","",""
"1156","img/150_270.png","74","image-keyboard-response","255","193759","0.0-6.0-1.124","JOSC","4","m","rechts","24","","","object","j","150","true"
"null","<div style=""font-size:60px;"">+</div>","null","html-keyboard-response","256","194210","0.0-6.0-0.125","JOSC","4","m","rechts","24","","fixation","","","",""
"764","img/90_150.png","74","image-keyboard-response","257","194976","0.0-6.0-1.125","JOSC","4","m","rechts","24","","","object","j","90","true"
"null","<div style=""font-size:60px;"">+</div>","null","html-keyboard-response","258","195327","0.0-6.0-0.126","JOSC","4","m","rechts","24","","fixation","","","",""
"727","img/0_150.png","74","image-keyboard-response","259","196055","0.0-6.0-1.126","JOSC","4","m","rechts","24","","","object","j","0","true"
"null","<div style=""font-size:60px;"">+</div>","null","html-keyboard-response","260","196557","0.0-6.0-0.127","JOSC","4","m","rechts","24","","fixation","","","",""
"1068","img/L90_180.png","74","image-keyboard-response","261","197625","0.0-6.0-1.127","JOSC","4","m","rechts","24","","","object","j","90","true"
"null","<div style=""font-size:60px;"">+</div>","null","html-keyboard-response","262","198077","0.0-6.0-0.128","JOSC","4","m","rechts","24","","fixation","","","",""
"1006","img/90_120.png","74","image-keyboard-response","263","199084","0.0-6.0-1.128","JOSC","4","m","rechts","24","","","object","j","90","true"
"null","<div style=""font-size:60px;"">+</div>","null","html-keyboard-response","264","199586","0.0-6.0-0.129","JOSC","4","m","rechts","24","","fixation","","","",""
"831","img/120_330.png","74","image-keyboard-response","265","200418","0.0-6.0-1.129","JOSC","4","m","rechts","24","","","object","j","120","true"
"null","<div style=""font-size:60px;"">+</div>","null","html-keyboard-response","266","200918","0.0-6.0-0.130","JOSC","4","m","rechts","24","","fixation","","","",""
"1063","img/30_60.png","74","image-keyboard-response","267","201982","0.0-6.0-1.130","JOSC","4","m","rechts","24","","","object","j","30","true"
"null","<div style=""font-size:60px;"">+</div>","null","html-keyboard-response","268","202282","0.0-6.0-0.131","JOSC","4","m","rechts","24","","fixation","","","",""
"1065","img/L150_180.png","74","image-keyboard-response","269","203348","0.0-6.0-1.131","JOSC","4","m","rechts","24","","","object","j","150","true"
"null","<div style=""font-size:60px;"">+</div>","null","html-keyboard-response","270","203750","0.0-6.0-0.132","JOSC","4","m","rechts","24","","fixation","","","",""
"1128","img/120_90.png","70","image-keyboard-response","271","204880","0.0-6.0-1.132","JOSC","4","m","rechts","24","","","object","f","120","true"
"null","<div style=""font-size:60px;"">+</div>","null","html-keyboard-response","272","205280","0.0-6.0-0.133","JOSC","4","m","rechts","24","","fixation","","","",""
"638","img/60_330.png","74","image-keyboard-response","273","205919","0.0-6.0-1.133","JOSC","4","m","rechts","24","","","object","j","60","true"
"null","<div style=""font-size:60px;"">+</div>","null","html-keyboard-response","274","206220","0.0-6.0-0.134","JOSC","4","m","rechts","24","","fixation","","","",""
"945","img/30_270.png","70","image-keyboard-response","275","207166","0.0-6.0-1.134","JOSC","4","m","rechts","24","","","object","f","30","true"
"null","<div style=""font-size:60px;"">+</div>","null","html-keyboard-response","276","207618","0.0-6.0-0.135","JOSC","4","m","rechts","24","","fixation","","","",""
"697","img/30_300.png","70","image-keyboard-response","277","208315","0.0-6.0-1.135","JOSC","4","m","rechts","24","","","object","f","30","true"
"null","<div style=""font-size:60px;"">+</div>","null","html-keyboard-response","278","208667","0.0-6.0-0.136","JOSC","4","m","rechts","24","","fixation","","","",""
"769","img/150_300.png","74","image-keyboard-response","279","209437","0.0-6.0-1.136","JOSC","4","m","rechts","24","","","object","j","150","true"
"null","<div style=""font-size:60px;"">+</div>","null","html-keyboard-response","280","209889","0.0-6.0-0.137","JOSC","4","m","rechts","24","","fixation","","","",""
"1075","img/60_270.png","70","image-keyboard-response","281","210964","0.0-6.0-1.137","JOSC","4","m","rechts","24","","","object","f","60","true"
"null","<div style=""font-size:60px;"">+</div>","null","html-keyboard-response","282","211366","0.0-6.0-0.138","JOSC","4","m","rechts","24","","fixation","","","",""
"721","img/60_30.png","70","image-keyboard-response","283","212087","0.0-6.0-1.138","JOSC","4","m","rechts","24","","","object","f","60","true"
"null","<div style=""font-size:60px;"">+</div>","null","html-keyboard-response","284","212589","0.0-6.0-0.139","JOSC","4","m","rechts","24","","fixation","","","",""
"752","img/90_60.png","70","image-keyboard-response","285","213342","0.0-6.0-1.139","JOSC","4","m","rechts","24","","","object","f","90","true"
"null","<div style=""font-size:60px;"">+</div>","null","html-keyboard-response","286","213744","0.0-6.0-0.140","JOSC","4","m","rechts","24","","fixation","","","",""
"835","img/150_120.png","74","image-keyboard-response","287","214579","0.0-6.0-1.140","JOSC","4","m","rechts","24","","","object","f","150","false"
"null","<div style=""font-size:60px;"">+</div>","null","html-keyboard-response","288","214881","0.0-6.0-0.141","JOSC","4","m","rechts","24","","fixation","","","",""
"1122","img/120_210.png","74","image-keyboard-response","289","216004","0.0-6.0-1.141","JOSC","4","m","rechts","24","","","object","f","120","false"
"null","<div style=""font-size:60px;"">+</div>","null","html-keyboard-response","290","216356","0.0-6.0-0.142","JOSC","4","m","rechts","24","","fixation","","","",""
"1295","img/0_210.png","70","image-keyboard-response","291","217651","0.0-6.0-1.142","JOSC","4","m","rechts","24","","","object","f","0","true"
"null","<div style=""font-size:60px;"">+</div>","null","html-keyboard-response","292","217951","0.0-6.0-0.143","JOSC","4","m","rechts","24","","fixation","","","",""
"1015","img/150_240.png","74","image-keyboard-response","293","218967","0.0-6.0-1.143","JOSC","4","m","rechts","24","","","object","j","150","true"
"null","<div style=""font-size:60px;"">+</div>","null","html-keyboard-response","294","219369","0.0-6.0-0.144","JOSC","4","m","rechts","24","","fixation","","","",""
"884","img/0_30.png","74","image-keyboard-response","295","220253","0.0-6.0-1.144","JOSC","4","m","rechts","24","","","object","j","0","true"
"null","<div style=""font-size:60px;"">+</div>","null","html-keyboard-response","296","220704","0.0-6.0-0.145","JOSC","4","m","rechts","24","","fixation","","","",""
"889","img/120_270.png","74","image-keyboard-response","297","221594","0.0-6.0-1.145","JOSC","4","m","rechts","24","","","object","j","120","true"
"null","<div style=""font-size:60px;"">+</div>","null","html-keyboard-response","298","222046","0.0-6.0-0.146","JOSC","4","m","rechts","24","","fixation","","","",""
"736","img/0_60.png","74","image-keyboard-response","299","222782","0.0-6.0-1.146","JOSC","4","m","rechts","24","","","object","j","0","true"
"null","<div style=""font-size:60px;"">+</div>","null","html-keyboard-response","300","223083","0.0-6.0-0.147","JOSC","4","m","rechts","24","","fixation","","","",""
"747","img/30_240.png","70","image-keyboard-response","301","223831","0.0-6.0-1.147","JOSC","4","m","rechts","24","","","object","f","30","true"
"null","<div style=""font-size:60px;"">+</div>","null","html-keyboard-response","302","224333","0.0-6.0-0.148","JOSC","4","m","rechts","24","","fixation","","","",""
"765","img/L30_180.png","74","image-keyboard-response","303","225098","0.0-6.0-1.148","JOSC","4","m","rechts","24","","","object","j","30","true"
"null","<div style=""font-size:60px;"">+</div>","null","html-keyboard-response","304","225499","0.0-6.0-0.149","JOSC","4","m","rechts","24","","fixation","","","",""
"1074","img/90_240.png","70","image-keyboard-response","305","226574","0.0-6.0-1.149","JOSC","4","m","rechts","24","","","object","f","90","true"
"null","<div style=""font-size:60px;"">+</div>","null","html-keyboard-response","306","226975","0.0-6.0-0.150","JOSC","4","m","rechts","24","","fixation","","","",""
"856","img/60_180.png","70","image-keyboard-response","307","227832","0.0-6.0-1.150","JOSC","4","m","rechts","24","","","object","f","60","true"
"null","<div style=""font-size:60px;"">+</div>","null","html-keyboard-response","308","228133","0.0-6.0-0.151","JOSC","4","m","rechts","24","","fixation","","","",""
"893","img/60_150.png","74","image-keyboard-response","309","229027","0.0-6.0-1.151","JOSC","4","m","rechts","24","","","object","j","60","true"
"null","<div style=""font-size:60px;"">+</div>","null","html-keyboard-response","310","229379","0.0-6.0-0.152","JOSC","4","m","rechts","24","","fixation","","","",""
"773","img/0_240.png","70","image-keyboard-response","311","230152","0.0-6.0-1.152","JOSC","4","m","rechts","24","","","object","f","0","true"
"null","<div style=""font-size:60px;"">+</div>","null","html-keyboard-response","312","230603","0.0-6.0-0.153","JOSC","4","m","rechts","24","","fixation","","","",""
"675","img/0_120.png","74","image-keyboard-response","313","231278","0.0-6.0-1.153","JOSC","4","m","rechts","24","","","object","j","0","true"
"null","<div style=""font-size:60px;"">+</div>","null","html-keyboard-response","314","231630","0.0-6.0-0.154","JOSC","4","m","rechts","24","","fixation","","","",""
"852","img/L120_180.png","74","image-keyboard-response","315","232482","0.0-6.0-1.154","JOSC","4","m","rechts","24","","","object","j","120","true"
"null","<div style=""font-size:60px;"">+</div>","null","html-keyboard-response","316","232933","0.0-6.0-0.155","JOSC","4","m","rechts","24","","fixation","","","",""
"1072","img/150_90.png","74","image-keyboard-response","317","234006","0.0-6.0-1.155","JOSC","4","m","rechts","24","","","object","f","150","false"
"null","<div style=""font-size:60px;"">+</div>","null","html-keyboard-response","318","234458","0.0-6.0-0.156","JOSC","4","m","rechts","24","","fixation","","","",""
"1128","img/150_240.png","74","image-keyboard-response","319","235587","0.0-6.0-1.156","JOSC","4","m","rechts","24","","","object","j","150","true"
"null","<div style=""font-size:60px;"">+</div>","null","html-keyboard-response","320","236038","0.0-6.0-0.157","JOSC","4","m","rechts","24","","fixation","","","",""
"720","img/90_60.png","70","image-keyboard-response","321","236759","0.0-6.0-1.157","JOSC","4","m","rechts","24","","","object","f","90","true"
"null","<div style=""font-size:60px;"">+</div>","null","html-keyboard-response","322","237060","0.0-6.0-0.158","JOSC","4","m","rechts","24","","fixation","","","",""
"858","img/90_120.png","70","image-keyboard-response","323","237919","0.0-6.0-1.158","JOSC","4","m","rechts","24","","","object","j","90","false"
"null","<div style=""font-size:60px;"">+</div>","null","html-keyboard-response","324","238371","0.0-6.0-0.159","JOSC","4","m","rechts","24","","fixation","","","",""
"1093","img/L90_180.png","74","image-keyboard-response","325","239466","0.0-6.0-1.159","JOSC","4","m","rechts","24","","","object","j","90","true"
"null","<div style=""font-size:60px;"">+</div>","null","html-keyboard-response","326","239767","0.0-6.0-0.160","JOSC","4","m","rechts","24","","fixation","","","",""
"832","img/90_30.png","70","image-keyboard-response","327","240601","0.0-6.0-1.160","JOSC","4","m","rechts","24","","","object","f","90","true"
"null","<div style=""font-size:60px;"">+</div>","null","html-keyboard-response","328","240901","0.0-6.0-0.161","JOSC","4","m","rechts","24","","fixation","","","",""
"896","img/150_60.png","70","image-keyboard-response","329","241798","0.0-6.0-1.161","JOSC","4","m","rechts","24","","","object","f","150","true"
"null","<div style=""font-size:60px;"">+</div>","null","html-keyboard-response","330","242250","0.0-6.0-0.162","JOSC","4","m","rechts","24","","fixation","","","",""
"1160","img/90_240.png","70","image-keyboard-response","331","243411","0.0-6.0-1.162","JOSC","4","m","rechts","24","","","object","f","90","true"
"null","<div style=""font-size:60px;"">+</div>","null","html-keyboard-response","332","243913","0.0-6.0-0.163","JOSC","4","m","rechts","24","","fixation","","","",""
"841","img/0_120.png","74","image-keyboard-response","333","244756","0.0-6.0-1.163","JOSC","4","m","rechts","24","","","object","j","0","true"
"null","<div style=""font-size:60px;"">+</div>","null","html-keyboard-response","334","245156","0.0-6.0-0.164","JOSC","4","m","rechts","24","","fixation","","","",""
"767","img/L30_180.png","74","image-keyboard-response","335","245925","0.0-6.0-1.164","JOSC","4","m","rechts","24","","","object","j","30","true"
"null","<div style=""font-size:60px;"">+</div>","null","html-keyboard-response","336","246325","0.0-6.0-0.165","JOSC","4","m","rechts","24","","fixation","","","",""
"744","img/0_210.png","70","image-keyboard-response","337","247070","0.0-6.0-1.165","JOSC","4","m","rechts","24","","","object","f","0","true"
"null","<div style=""font-size:60px;"">+</div>","null","html-keyboard-response","338","247572","0.0-6.0-0.166","JOSC","4","m","rechts","24","","fixation","","","",""
"667","img/120_30.png","70","image-keyboard-response","339","248240","0.0-6.0-1.166","JOSC","4","m","rechts","24","","","object","f","120","true"
"null","<div style=""font-size:60px;"">+</div>","null","html-keyboard-response","340","248641","0.0-6.0-0.167","JOSC","4","m","rechts","24","","fixation","","","",""
"755","img/90_180.png","70","image-keyboard-response","341","249397","0.0-6.0-1.167","JOSC","4","m","rechts","24","","","object","f","90","true"
"null","<div style=""font-size:60px;"">+</div>","null","html-keyboard-response","342","249699","0.0-6.0-0.168","JOSC","4","m","rechts","24","","fixation","","","",""
"892","img/60_180.png","70","image-keyboard-response","343","250591","0.0-6.0-1.168","JOSC","4","m","rechts","24","","","object","f","60","true"
"null","<div style=""font-size:60px;"">+</div>","null","html-keyboard-response","344","250993","0.0-6.0-0.169","JOSC","4","m","rechts","24","","fixation","","","",""
"733","img/60_150.png","74","image-keyboard-response","345","251727","0.0-6.0-1.169","JOSC","4","m","rechts","24","","","object","j","60","true"
"null","<div style=""font-size:60px;"">+</div>","null","html-keyboard-response","346","252229","0.0-6.0-0.170","JOSC","4","m","rechts","24","","fixation","","","",""
"869","img/0_300.png","70","image-keyboard-response","347","253099","0.0-6.0-1.170","JOSC","4","m","rechts","24","","","object","f","0","true"
"null","<div style=""font-size:60px;"">+</div>","null","html-keyboard-response","348","253601","0.0-6.0-0.171","JOSC","4","m","rechts","24","","fixation","","","",""
"750","img/150_300.png","74","image-keyboard-response","349","254352","0.0-6.0-1.171","JOSC","4","m","rechts","24","","","object","j","150","true"
"null","<div style=""font-size:60px;"">+</div>","null","html-keyboard-response","350","254703","0.0-6.0-0.172","JOSC","4","m","rechts","24","","fixation","","","",""
"725","img/60_210.png","70","image-keyboard-response","351","255429","0.0-6.0-1.172","JOSC","4","m","rechts","24","","","object","f","60","true"
"null","<div style=""font-size:60px;"">+</div>","null","html-keyboard-response","352","255931","0.0-6.0-0.173","JOSC","4","m","rechts","24","","fixation","","","",""
"968","img/120_180.png","70","image-keyboard-response","353","256900","0.0-6.0-1.173","JOSC","4","m","rechts","24","","","object","f","120","true"
"null","<div style=""font-size:60px;"">+</div>","null","html-keyboard-response","354","257252","0.0-6.0-0.174","JOSC","4","m","rechts","24","","fixation","","","",""
"880","img/150_180.png","70","image-keyboard-response","355","258133","0.0-6.0-1.174","JOSC","4","m","rechts","24","","","object","f","150","true"
"null","<div style=""font-size:60px;"">+</div>","null","html-keyboard-response","356","258484","0.0-6.0-0.175","JOSC","4","m","rechts","24","","fixation","","","",""
"1149","img/60_90.png","74","image-keyboard-response","357","259634","0.0-6.0-1.175","JOSC","4","m","rechts","24","","","object","j","60","true"
"null","<div style=""font-size:60px;"">+</div>","null","html-keyboard-response","358","260036","0.0-6.0-0.176","JOSC","4","m","rechts","24","","fixation","","","",""
"806","img/L150_180.png","74","image-keyboard-response","359","260842","0.0-6.0-1.176","JOSC","4","m","rechts","24","","","object","j","150","true"
"null","<div style=""font-size:60px;"">+</div>","null","html-keyboard-response","360","261244","0.0-6.0-0.177","JOSC","4","m","rechts","24","","fixation","","","",""
"1071","img/0_330.png","70","image-keyboard-response","361","262316","0.0-6.0-1.177","JOSC","4","m","rechts","24","","","object","f","0","true"
"null","<div style=""font-size:60px;"">+</div>","null","html-keyboard-response","362","262668","0.0-6.0-0.178","JOSC","4","m","rechts","24","","fixation","","","",""
"706","img/0_150.png","74","image-keyboard-response","363","263375","0.0-6.0-1.178","JOSC","4","m","rechts","24","","","object","j","0","true"
"null","<div style=""font-size:60px;"">+</div>","null","html-keyboard-response","364","263827","0.0-6.0-0.179","JOSC","4","m","rechts","24","","fixation","","","",""
"888","img/30_90.png","74","image-keyboard-response","365","264715","0.0-6.0-1.179","JOSC","4","m","rechts","24","","","object","j","30","true"
"null","<div style=""font-size:60px;"">+</div>","null","html-keyboard-response","366","265067","0.0-6.0-0.180","JOSC","4","m","rechts","24","","fixation","","","",""
"771","img/60_330.png","74","image-keyboard-response","367","265838","0.0-6.0-1.180","JOSC","4","m","rechts","24","","","object","j","60","true"
"null","<div style=""font-size:60px;"">+</div>","null","html-keyboard-response","368","266290","0.0-6.0-0.181","JOSC","4","m","rechts","24","","fixation","","","",""
"906","img/L120_180.png","74","image-keyboard-response","369","267196","0.0-6.0-1.181","JOSC","4","m","rechts","24","","","object","j","120","true"
"null","<div style=""font-size:60px;"">+</div>","null","html-keyboard-response","370","267697","0.0-6.0-0.182","JOSC","4","m","rechts","24","","fixation","","","",""
"884","img/120_270.png","70","image-keyboard-response","371","268582","0.0-6.0-1.182","JOSC","4","m","rechts","24","","","object","j","120","false"
"null","<div style=""font-size:60px;"">+</div>","null","html-keyboard-response","372","268934","0.0-6.0-0.183","JOSC","4","m","rechts","24","","fixation","","","",""
"949","img/90_210.png","70","image-keyboard-response","373","269884","0.0-6.0-1.183","JOSC","4","m","rechts","24","","","object","f","90","true"
"null","<div style=""font-size:60px;"">+</div>","null","html-keyboard-response","374","270236","0.0-6.0-0.184","JOSC","4","m","rechts","24","","fixation","","","",""
"1007","img/120_150.png","74","image-keyboard-response","375","271244","0.0-6.0-1.184","JOSC","4","m","rechts","24","","","object","j","120","true"
"null","<div style=""font-size:60px;"">+</div>","null","html-keyboard-response","376","271645","0.0-6.0-0.185","JOSC","4","m","rechts","24","","fixation","","","",""
"872","img/0_270.png","70","image-keyboard-response","377","272518","0.0-6.0-1.185","JOSC","4","m","rechts","24","","","object","f","0","true"
"null","<div style=""font-size:60px;"">+</div>","null","html-keyboard-response","378","272820","0.0-6.0-0.186","JOSC","4","m","rechts","24","","fixation","","","",""
"685","img/90_330.png","74","image-keyboard-response","379","273505","0.0-6.0-1.186","JOSC","4","m","rechts","24","","","object","j","90","true"
"null","<div style=""font-size:60px;"">+</div>","null","html-keyboard-response","380","274006","0.0-6.0-0.187","JOSC","4","m","rechts","24","","fixation","","","",""
"793","img/30_240.png","70","image-keyboard-response","381","274801","0.0-6.0-1.187","JOSC","4","m","rechts","24","","","object","f","30","true"
"null","<div style=""font-size:60px;"">+</div>","null","html-keyboard-response","382","275101","0.0-6.0-0.188","JOSC","4","m","rechts","24","","fixation","","","",""
"769","img/0_90.png","74","image-keyboard-response","383","275871","0.0-6.0-1.188","JOSC","4","m","rechts","24","","","object","j","0","true"
"null","<div style=""font-size:60px;"">+</div>","null","html-keyboard-response","384","276173","0.0-6.0-0.189","JOSC","4","m","rechts","24","","fixation","","","",""
"1322","img/120_90.png","74","image-keyboard-response","385","277495","0.0-6.0-1.189","JOSC","4","m","rechts","24","","","object","f","120","false"
"null","<div style=""font-size:60px;"">+</div>","null","html-keyboard-response","386","277846","0.0-6.0-0.190","JOSC","4","m","rechts","24","","fixation","","","",""
"913","img/30_120.png","74","image-keyboard-response","387","278760","0.0-6.0-1.190","JOSC","4","m","rechts","24","","","object","j","30","true"
"null","<div style=""font-size:60px;"">+</div>","null","html-keyboard-response","388","279211","0.0-6.0-0.191","JOSC","4","m","rechts","24","","fixation","","","",""
"810","img/120_330.png","74","image-keyboard-response","389","280023","0.0-6.0-1.191","JOSC","4","m","rechts","24","","","object","j","120","true"
"null","<div style=""font-size:60px;"">+</div>","null","html-keyboard-response","390","280474","0.0-6.0-0.192","JOSC","4","m","rechts","24","","fixation","","","",""
"1074","img/90_150.png","74","image-keyboard-response","391","281549","0.0-6.0-1.192","JOSC","4","m","rechts","24","","","object","j","90","true"
"null","<div style=""font-size:60px;"">+</div>","null","html-keyboard-response","392","281850","0.0-6.0-0.193","JOSC","4","m","rechts","24","","fixation","","","",""
"1116","img/120_210.png","70","image-keyboard-response","393","282966","0.0-6.0-1.193","JOSC","4","m","rechts","24","","","object","f","120","true"
"null","<div style=""font-size:60px;"">+</div>","null","html-keyboard-response","394","283268","0.0-6.0-0.194","JOSC","4","m","rechts","24","","fixation","","","",""
"935","img/60_270.png","70","image-keyboard-response","395","284205","0.0-6.0-1.194","JOSC","4","m","rechts","24","","","object","f","60","true"
"null","<div style=""font-size:60px;"">+</div>","null","html-keyboard-response","396","284556","0.0-6.0-0.195","JOSC","4","m","rechts","24","","fixation","","","",""
"946","img/30_300.png","70","image-keyboard-response","397","285503","0.0-6.0-1.195","JOSC","4","m","rechts","24","","","object","f","30","true"
"null","<div style=""font-size:60px;"">+</div>","null","html-keyboard-response","398","285905","0.0-6.0-0.196","JOSC","4","m","rechts","24","","fixation","","","",""
"757","img/30_270.png","70","image-keyboard-response","399","286663","0.0-6.0-1.196","JOSC","4","m","rechts","24","","","object","f","30","true"
"null","<div style=""font-size:60px;"">+</div>","null","html-keyboard-response","400","287115","0.0-6.0-0.197","JOSC","4","m","rechts","24","","fixation","","","",""
"750","img/60_30.png","70","image-keyboard-response","401","287866","0.0-6.0-1.197","JOSC","4","m","rechts","24","","","object","f","60","true"
"null","<div style=""font-size:60px;"">+</div>","null","html-keyboard-response","402","288217","0.0-6.0-0.198","JOSC","4","m","rechts","24","","fixation","","","",""
"764","img/L60_180.png","74","image-keyboard-response","403","288982","0.0-6.0-1.198","JOSC","4","m","rechts","24","","","object","j","60","true"
"null","<div style=""font-size:60px;"">+</div>","null","html-keyboard-response","404","289384","0.0-6.0-0.199","JOSC","4","m","rechts","24","","fixation","","","",""
"1641","img/90_300.png","74","image-keyboard-response","405","291026","0.0-6.0-1.199","JOSC","4","m","rechts","24","","","object","j","90","true"
"null","<div style=""font-size:60px;"">+</div>","null","html-keyboard-response","406","291527","0.0-6.0-0.200","JOSC","4","m","rechts","24","","fixation","","","",""
"684","img/30_180.png","70","image-keyboard-response","407","292211","0.0-6.0-1.200","JOSC","4","m","rechts","24","","","object","f","30","true"
"null","<div style=""font-size:60px;"">+</div>","null","html-keyboard-response","408","292663","0.0-6.0-0.201","JOSC","4","m","rechts","24","","fixation","","","",""
"880","img/150_270.png","74","image-keyboard-response","409","293543","0.0-6.0-1.201","JOSC","4","m","rechts","24","","","object","j","150","true"
"null","<div style=""font-size:60px;"">+</div>","null","html-keyboard-response","410","294045","0.0-6.0-0.202","JOSC","4","m","rechts","24","","fixation","","","",""
"778","img/0_30.png","74","image-keyboard-response","411","294823","0.0-6.0-1.202","JOSC","4","m","rechts","24","","","object","j","0","true"
"null","<div style=""font-size:60px;"">+</div>","null","html-keyboard-response","412","295125","0.0-6.0-0.203","JOSC","4","m","rechts","24","","fixation","","","",""
"655","img/0_240.png","70","image-keyboard-response","413","295781","0.0-6.0-1.203","JOSC","4","m","rechts","24","","","object","f","0","true"
"null","<div style=""font-size:60px;"">+</div>","null","html-keyboard-response","414","296233","0.0-6.0-0.204","JOSC","4","m","rechts","24","","fixation","","","",""
"846","img/30_60.png","70","image-keyboard-response","415","297079","0.0-6.0-1.204","JOSC","4","m","rechts","24","","","object","j","30","false"
"null","<div style=""font-size:60px;"">+</div>","null","html-keyboard-response","416","297431","0.0-6.0-0.205","JOSC","4","m","rechts","24","","fixation","","","",""
"1257","img/150_90.png","70","image-keyboard-response","417","298689","0.0-6.0-1.205","JOSC","4","m","rechts","24","","","object","f","150","true"
"null","<div style=""font-size:60px;"">+</div>","null","html-keyboard-response","418","299041","0.0-6.0-0.206","JOSC","4","m","rechts","24","","fixation","","","",""
"856","img/0_60.png","74","image-keyboard-response","419","299897","0.0-6.0-1.206","JOSC","4","m","rechts","24","","","object","j","0","true"
"null","<div style=""font-size:60px;"">+</div>","null","html-keyboard-response","420","300199","0.0-6.0-0.207","JOSC","4","m","rechts","24","","fixation","","","",""
"1843","img/150_120.png","70","image-keyboard-response","421","302043","0.0-6.0-1.207","JOSC","4","m","rechts","24","","","object","f","150","true"
"8868","<p>Du hast in 93% der Versuche korrekt entschieden.</p><p>Deine durchschnittliche Reaktionszeit war  893ms.</p><p>Dr&uuml;cke eine beliebige Taste, um die Session zu beenden. Vielen Dank!</p>","66","html-keyboard-response","422","310911","0.0-7.0","JOSC","4","m","rechts","24","","","","","",""
