"rt","stimulus","key_press","trial_type","trial_index","time_elapsed","internal_node_id","subject","session","sex","handedness","age","responses","test_part","condition","correct_response","angle","correct"
"1704","<p>Mental Rotation Experiment.</p> <p>Dr&uuml;cke eine beliebige Taste, um anzufangen.</p>","72","html-keyboard-response","0","1705","0.0-0.0","JOSC","3","m","rechts","24","","","","","",""
"6509","","","survey-text","1","8218","0.0-1.0","JOSC","3","m","rechts","24","{""Q0"":""JOSC""}","","","","",""
"2907","","","survey-text","2","11126","0.0-2.0","JOSC","3","m","rechts","24","{""Q0"":""3""}","","","","",""
"3876","","","survey-multi-choice","3","15004","0.0-3.0","JOSC","3","m","rechts","24","{""Q0"":""m"",""Q1"":""rechts""}","","","","",""
"2924","","","survey-text","4","17929","0.0-4.0","JOSC","3","m","rechts","24","{""Q0"":""24""}","","","","",""
"9509","<p>Stell dir vor, dass du vor einem runden Tisch stehst, auf dem sich ein blauer Ball am Tischrand befindet. Entlang des Tischrands ist jeweils ein verschieden langer Pfeil. Nun bleibst du an deinem Platz vor dem Tisch und rotierst den Tisch entlang des Pfeils (gleiche Richtung und Länge). </p> <img src='img/30_180.png'></img> <br><p> Nachdem du diese (vorgestellte) Rotation durchgef&uuml;hrt hast, schau in Richtung der Tischmitte, und entscheide dann, ob der Ball links oder rechts von dir liegt.</p> <p>Dr&uuml;cke die <strong>'f'</strong>-Taste f&uuml;r links, die <strong>'j'</strong>-Taste f&uuml;r rechts.</p><br><p> Das Bild wird jeweils 1 Sekunde lang pr&auml;sentiert. Du hast 3 Sekunden Zeit eine Entscheidung zu treffen.</p>","74","html-keyboard-response","5","27441","0.0-5.0","JOSC","3","m","rechts","24","","","","","",""
"null","<div style=""font-size:60px;"">+</div>","null","html-keyboard-response","6","28794","0.0-6.0-0.0","JOSC","3","m","rechts","24","","fixation","","","",""
"1501","img/90_210.png","70","image-keyboard-response","7","30298","0.0-6.0-1.0","JOSC","3","m","rechts","24","","","object","f","90","true"
"null","<div style=""font-size:60px;"">+</div>","null","html-keyboard-response","8","30699","0.0-6.0-0.1","JOSC","3","m","rechts","24","","fixation","","","",""
"904","img/150_90.png","70","image-keyboard-response","9","31604","0.0-6.0-1.1","JOSC","3","m","rechts","24","","","object","f","150","true"
"null","<div style=""font-size:60px;"">+</div>","null","html-keyboard-response","10","31956","0.0-6.0-0.2","JOSC","3","m","rechts","24","","fixation","","","",""
"1064","img/120_180.png","70","image-keyboard-response","11","33021","0.0-6.0-1.2","JOSC","3","m","rechts","24","","","object","f","120","true"
"null","<div style=""font-size:60px;"">+</div>","null","html-keyboard-response","12","33522","0.0-6.0-0.3","JOSC","3","m","rechts","24","","fixation","","","",""
"892","img/90_60.png","70","image-keyboard-response","13","34416","0.0-6.0-1.3","JOSC","3","m","rechts","24","","","object","f","90","true"
"null","<div style=""font-size:60px;"">+</div>","null","html-keyboard-response","14","34917","0.0-6.0-0.4","JOSC","3","m","rechts","24","","fixation","","","",""
"877","img/L120_180.png","74","image-keyboard-response","15","35796","0.0-6.0-1.4","JOSC","3","m","rechts","24","","","object","j","120","true"
"null","<div style=""font-size:60px;"">+</div>","null","html-keyboard-response","16","36247","0.0-6.0-0.5","JOSC","3","m","rechts","24","","fixation","","","",""
"872","img/90_180.png","70","image-keyboard-response","17","37120","0.0-6.0-1.5","JOSC","3","m","rechts","24","","","object","f","90","true"
"null","<div style=""font-size:60px;"">+</div>","null","html-keyboard-response","18","37522","0.0-6.0-0.6","JOSC","3","m","rechts","24","","fixation","","","",""
"857","img/0_150.png","74","image-keyboard-response","19","38380","0.0-6.0-1.6","JOSC","3","m","rechts","24","","","object","j","0","true"
"null","<div style=""font-size:60px;"">+</div>","null","html-keyboard-response","20","38782","0.0-6.0-0.7","JOSC","3","m","rechts","24","","fixation","","","",""
"800","img/90_30.png","70","image-keyboard-response","21","39583","0.0-6.0-1.7","JOSC","3","m","rechts","24","","","object","f","90","true"
"null","<div style=""font-size:60px;"">+</div>","null","html-keyboard-response","22","39885","0.0-6.0-0.8","JOSC","3","m","rechts","24","","fixation","","","",""
"626","img/120_30.png","70","image-keyboard-response","23","40512","0.0-6.0-1.8","JOSC","3","m","rechts","24","","","object","f","120","true"
"null","<div style=""font-size:60px;"">+</div>","null","html-keyboard-response","24","40814","0.0-6.0-0.9","JOSC","3","m","rechts","24","","fixation","","","",""
"765","img/30_90.png","74","image-keyboard-response","25","41579","0.0-6.0-1.9","JOSC","3","m","rechts","24","","","object","j","30","true"
"null","<div style=""font-size:60px;"">+</div>","null","html-keyboard-response","26","42081","0.0-6.0-0.10","JOSC","3","m","rechts","24","","fixation","","","",""
"727","img/60_330.png","74","image-keyboard-response","27","42809","0.0-6.0-1.10","JOSC","3","m","rechts","24","","","object","j","60","true"
"null","<div style=""font-size:60px;"">+</div>","null","html-keyboard-response","28","43261","0.0-6.0-0.11","JOSC","3","m","rechts","24","","fixation","","","",""
"840","img/90_240.png","70","image-keyboard-response","29","44103","0.0-6.0-1.11","JOSC","3","m","rechts","24","","","object","f","90","true"
"null","<div style=""font-size:60px;"">+</div>","null","html-keyboard-response","30","44554","0.0-6.0-0.12","JOSC","3","m","rechts","24","","fixation","","","",""
"740","img/0_120.png","74","image-keyboard-response","31","45296","0.0-6.0-1.12","JOSC","3","m","rechts","24","","","object","j","0","true"
"null","<div style=""font-size:60px;"">+</div>","null","html-keyboard-response","32","45797","0.0-6.0-0.13","JOSC","3","m","rechts","24","","fixation","","","",""
"748","img/60_150.png","74","image-keyboard-response","33","46547","0.0-6.0-1.13","JOSC","3","m","rechts","24","","","object","j","60","true"
"null","<div style=""font-size:60px;"">+</div>","null","html-keyboard-response","34","47048","0.0-6.0-0.14","JOSC","3","m","rechts","24","","fixation","","","",""
"776","img/0_330.png","70","image-keyboard-response","35","47826","0.0-6.0-1.14","JOSC","3","m","rechts","24","","","object","f","0","true"
"null","<div style=""font-size:60px;"">+</div>","null","html-keyboard-response","36","48177","0.0-6.0-0.15","JOSC","3","m","rechts","24","","fixation","","","",""
"1887","img/120_210.png","74","image-keyboard-response","37","50066","0.0-6.0-1.15","JOSC","3","m","rechts","24","","","object","f","120","false"
"null","<div style=""font-size:60px;"">+</div>","null","html-keyboard-response","38","50467","0.0-6.0-0.16","JOSC","3","m","rechts","24","","fixation","","","",""
"651","img/60_30.png","70","image-keyboard-response","39","51120","0.0-6.0-1.16","JOSC","3","m","rechts","24","","","object","f","60","true"
"null","<div style=""font-size:60px;"">+</div>","null","html-keyboard-response","40","51521","0.0-6.0-0.17","JOSC","3","m","rechts","24","","fixation","","","",""
"1086","img/30_270.png","70","image-keyboard-response","41","52608","0.0-6.0-1.17","JOSC","3","m","rechts","24","","","object","f","30","true"
"null","<div style=""font-size:60px;"">+</div>","null","html-keyboard-response","42","52960","0.0-6.0-0.18","JOSC","3","m","rechts","24","","fixation","","","",""
"1161","img/L60_180.png","74","image-keyboard-response","43","54122","0.0-6.0-1.18","JOSC","3","m","rechts","24","","","object","j","60","true"
"null","<div style=""font-size:60px;"">+</div>","null","html-keyboard-response","44","54474","0.0-6.0-0.19","JOSC","3","m","rechts","24","","fixation","","","",""
"1079","img/60_90.png","74","image-keyboard-response","45","55554","0.0-6.0-1.19","JOSC","3","m","rechts","24","","","object","j","60","true"
"null","<div style=""font-size:60px;"">+</div>","null","html-keyboard-response","46","55905","0.0-6.0-0.20","JOSC","3","m","rechts","24","","fixation","","","",""
"868","img/L30_180.png","74","image-keyboard-response","47","56774","0.0-6.0-1.20","JOSC","3","m","rechts","24","","","object","j","30","true"
"null","<div style=""font-size:60px;"">+</div>","null","html-keyboard-response","48","57076","0.0-6.0-0.21","JOSC","3","m","rechts","24","","fixation","","","",""
"863","img/30_300.png","70","image-keyboard-response","49","57940","0.0-6.0-1.21","JOSC","3","m","rechts","24","","","object","f","30","true"
"null","<div style=""font-size:60px;"">+</div>","null","html-keyboard-response","50","58292","0.0-6.0-0.22","JOSC","3","m","rechts","24","","fixation","","","",""
"1415","img/120_90.png","70","image-keyboard-response","51","59708","0.0-6.0-1.22","JOSC","3","m","rechts","24","","","object","f","120","true"
"null","<div style=""font-size:60px;"">+</div>","null","html-keyboard-response","52","60210","0.0-6.0-0.23","JOSC","3","m","rechts","24","","fixation","","","",""
"762","img/0_30.png","74","image-keyboard-response","53","60973","0.0-6.0-1.23","JOSC","3","m","rechts","24","","","object","j","0","true"
"null","<div style=""font-size:60px;"">+</div>","null","html-keyboard-response","54","61475","0.0-6.0-0.24","JOSC","3","m","rechts","24","","fixation","","","",""
"919","img/30_180.png","70","image-keyboard-response","55","62394","0.0-6.0-1.24","JOSC","3","m","rechts","24","","","object","f","30","true"
"null","<div style=""font-size:60px;"">+</div>","null","html-keyboard-response","56","62845","0.0-6.0-0.25","JOSC","3","m","rechts","24","","fixation","","","",""
"729","img/0_240.png","70","image-keyboard-response","57","63575","0.0-6.0-1.25","JOSC","3","m","rechts","24","","","object","f","0","true"
"null","<div style=""font-size:60px;"">+</div>","null","html-keyboard-response","58","63976","0.0-6.0-0.26","JOSC","3","m","rechts","24","","fixation","","","",""
"881","img/90_150.png","74","image-keyboard-response","59","64858","0.0-6.0-1.26","JOSC","3","m","rechts","24","","","object","j","90","true"
"null","<div style=""font-size:60px;"">+</div>","null","html-keyboard-response","60","65159","0.0-6.0-0.27","JOSC","3","m","rechts","24","","fixation","","","",""
"897","img/150_180.png","70","image-keyboard-response","61","66058","0.0-6.0-1.27","JOSC","3","m","rechts","24","","","object","f","150","true"
"null","<div style=""font-size:60px;"">+</div>","null","html-keyboard-response","62","66559","0.0-6.0-0.28","JOSC","3","m","rechts","24","","fixation","","","",""
"1201","img/90_120.png","74","image-keyboard-response","63","67762","0.0-6.0-1.28","JOSC","3","m","rechts","24","","","object","j","90","true"
"null","<div style=""font-size:60px;"">+</div>","null","html-keyboard-response","64","68163","0.0-6.0-0.29","JOSC","3","m","rechts","24","","fixation","","","",""
"841","img/60_270.png","70","image-keyboard-response","65","69005","0.0-6.0-1.29","JOSC","3","m","rechts","24","","","object","f","60","true"
"null","<div style=""font-size:60px;"">+</div>","null","html-keyboard-response","66","69407","0.0-6.0-0.30","JOSC","3","m","rechts","24","","fixation","","","",""
"777","img/L150_180.png","74","image-keyboard-response","67","70185","0.0-6.0-1.30","JOSC","3","m","rechts","24","","","object","j","150","true"
"null","<div style=""font-size:60px;"">+</div>","null","html-keyboard-response","68","70487","0.0-6.0-0.31","JOSC","3","m","rechts","24","","fixation","","","",""
"872","img/150_60.png","70","image-keyboard-response","69","71360","0.0-6.0-1.31","JOSC","3","m","rechts","24","","","object","f","150","true"
"null","<div style=""font-size:60px;"">+</div>","null","html-keyboard-response","70","71712","0.0-6.0-0.32","JOSC","3","m","rechts","24","","fixation","","","",""
"741","img/120_150.png","74","image-keyboard-response","71","72454","0.0-6.0-1.32","JOSC","3","m","rechts","24","","","object","j","120","true"
"null","<div style=""font-size:60px;"">+</div>","null","html-keyboard-response","72","72756","0.0-6.0-0.33","JOSC","3","m","rechts","24","","fixation","","","",""
"897","img/0_60.png","74","image-keyboard-response","73","73654","0.0-6.0-1.33","JOSC","3","m","rechts","24","","","object","j","0","true"
"null","<div style=""font-size:60px;"">+</div>","null","html-keyboard-response","74","73955","0.0-6.0-0.34","JOSC","3","m","rechts","24","","fixation","","","",""
"1561","img/120_270.png","74","image-keyboard-response","75","75517","0.0-6.0-1.34","JOSC","3","m","rechts","24","","","object","j","120","true"
"null","<div style=""font-size:60px;"">+</div>","null","html-keyboard-response","76","75818","0.0-6.0-0.35","JOSC","3","m","rechts","24","","fixation","","","",""
"949","img/150_300.png","74","image-keyboard-response","77","76768","0.0-6.0-1.35","JOSC","3","m","rechts","24","","","object","j","150","true"
"null","<div style=""font-size:60px;"">+</div>","null","html-keyboard-response","78","77270","0.0-6.0-0.36","JOSC","3","m","rechts","24","","fixation","","","",""
"909","img/150_270.png","74","image-keyboard-response","79","78179","0.0-6.0-1.36","JOSC","3","m","rechts","24","","","object","j","150","true"
"null","<div style=""font-size:60px;"">+</div>","null","html-keyboard-response","80","78581","0.0-6.0-0.37","JOSC","3","m","rechts","24","","fixation","","","",""
"935","img/90_300.png","74","image-keyboard-response","81","79516","0.0-6.0-1.37","JOSC","3","m","rechts","24","","","object","j","90","true"
"null","<div style=""font-size:60px;"">+</div>","null","html-keyboard-response","82","79918","0.0-6.0-0.38","JOSC","3","m","rechts","24","","fixation","","","",""
"874","img/0_300.png","70","image-keyboard-response","83","80793","0.0-6.0-1.38","JOSC","3","m","rechts","24","","","object","f","0","true"
"null","<div style=""font-size:60px;"">+</div>","null","html-keyboard-response","84","81094","0.0-6.0-0.39","JOSC","3","m","rechts","24","","fixation","","","",""
"709","img/120_330.png","74","image-keyboard-response","85","81805","0.0-6.0-1.39","JOSC","3","m","rechts","24","","","object","j","120","true"
"null","<div style=""font-size:60px;"">+</div>","null","html-keyboard-response","86","82306","0.0-6.0-0.40","JOSC","3","m","rechts","24","","fixation","","","",""
"712","img/90_330.png","74","image-keyboard-response","87","83019","0.0-6.0-1.40","JOSC","3","m","rechts","24","","","object","j","90","true"
"null","<div style=""font-size:60px;"">+</div>","null","html-keyboard-response","88","83370","0.0-6.0-0.41","JOSC","3","m","rechts","24","","fixation","","","",""
"954","img/150_240.png","74","image-keyboard-response","89","84326","0.0-6.0-1.41","JOSC","3","m","rechts","24","","","object","j","150","true"
"null","<div style=""font-size:60px;"">+</div>","null","html-keyboard-response","90","84827","0.0-6.0-0.42","JOSC","3","m","rechts","24","","fixation","","","",""
"842","img/60_210.png","70","image-keyboard-response","91","85671","0.0-6.0-1.42","JOSC","3","m","rechts","24","","","object","f","60","true"
"null","<div style=""font-size:60px;"">+</div>","null","html-keyboard-response","92","85972","0.0-6.0-0.43","JOSC","3","m","rechts","24","","fixation","","","",""
"851","img/30_240.png","70","image-keyboard-response","93","86825","0.0-6.0-1.43","JOSC","3","m","rechts","24","","","object","f","30","true"
"null","<div style=""font-size:60px;"">+</div>","null","html-keyboard-response","94","87276","0.0-6.0-0.44","JOSC","3","m","rechts","24","","fixation","","","",""
"1471","img/L90_180.png","74","image-keyboard-response","95","88748","0.0-6.0-1.44","JOSC","3","m","rechts","24","","","object","j","90","true"
"null","<div style=""font-size:60px;"">+</div>","null","html-keyboard-response","96","89150","0.0-6.0-0.45","JOSC","3","m","rechts","24","","fixation","","","",""
"1073","img/30_120.png","74","image-keyboard-response","97","90224","0.0-6.0-1.45","JOSC","3","m","rechts","24","","","object","j","30","true"
"null","<div style=""font-size:60px;"">+</div>","null","html-keyboard-response","98","90526","0.0-6.0-0.46","JOSC","3","m","rechts","24","","fixation","","","",""
"777","img/0_90.png","74","image-keyboard-response","99","91304","0.0-6.0-1.46","JOSC","3","m","rechts","24","","","object","j","0","true"
"null","<div style=""font-size:60px;"">+</div>","null","html-keyboard-response","100","91756","0.0-6.0-0.47","JOSC","3","m","rechts","24","","fixation","","","",""
"819","img/0_270.png","70","image-keyboard-response","101","92576","0.0-6.0-1.47","JOSC","3","m","rechts","24","","","object","f","0","true"
"null","<div style=""font-size:60px;"">+</div>","null","html-keyboard-response","102","92978","0.0-6.0-0.48","JOSC","3","m","rechts","24","","fixation","","","",""
"1339","img/30_60.png","74","image-keyboard-response","103","94317","0.0-6.0-1.48","JOSC","3","m","rechts","24","","","object","j","30","true"
"null","<div style=""font-size:60px;"">+</div>","null","html-keyboard-response","104","94718","0.0-6.0-0.49","JOSC","3","m","rechts","24","","fixation","","","",""
"918","img/0_210.png","70","image-keyboard-response","105","95637","0.0-6.0-1.49","JOSC","3","m","rechts","24","","","object","f","0","true"
"null","<div style=""font-size:60px;"">+</div>","null","html-keyboard-response","106","95939","0.0-6.0-0.50","JOSC","3","m","rechts","24","","fixation","","","",""
"1293","img/60_180.png","70","image-keyboard-response","107","97233","0.0-6.0-1.50","JOSC","3","m","rechts","24","","","object","f","60","true"
"null","<div style=""font-size:60px;"">+</div>","null","html-keyboard-response","108","97734","0.0-6.0-0.51","JOSC","3","m","rechts","24","","fixation","","","",""
"857","img/150_120.png","74","image-keyboard-response","109","98592","0.0-6.0-1.51","JOSC","3","m","rechts","24","","","object","f","150","false"
"null","<div style=""font-size:60px;"">+</div>","null","html-keyboard-response","110","99043","0.0-6.0-0.52","JOSC","3","m","rechts","24","","fixation","","","",""
"1064","img/90_180.png","70","image-keyboard-response","111","100108","0.0-6.0-1.52","JOSC","3","m","rechts","24","","","object","f","90","true"
"null","<div style=""font-size:60px;"">+</div>","null","html-keyboard-response","112","100410","0.0-6.0-0.53","JOSC","3","m","rechts","24","","fixation","","","",""
"813","img/90_330.png","74","image-keyboard-response","113","101224","0.0-6.0-1.53","JOSC","3","m","rechts","24","","","object","j","90","true"
"null","<div style=""font-size:60px;"">+</div>","null","html-keyboard-response","114","101676","0.0-6.0-0.54","JOSC","3","m","rechts","24","","fixation","","","",""
"899","img/90_120.png","74","image-keyboard-response","115","102577","0.0-6.0-1.54","JOSC","3","m","rechts","24","","","object","j","90","true"
"null","<div style=""font-size:60px;"">+</div>","null","html-keyboard-response","116","103078","0.0-6.0-0.55","JOSC","3","m","rechts","24","","fixation","","","",""
"708","img/0_30.png","74","image-keyboard-response","117","103787","0.0-6.0-1.55","JOSC","3","m","rechts","24","","","object","j","0","true"
"null","<div style=""font-size:60px;"">+</div>","null","html-keyboard-response","118","104139","0.0-6.0-0.56","JOSC","3","m","rechts","24","","fixation","","","",""
"918","img/120_150.png","74","image-keyboard-response","119","105057","0.0-6.0-1.56","JOSC","3","m","rechts","24","","","object","j","120","true"
"null","<div style=""font-size:60px;"">+</div>","null","html-keyboard-response","120","105559","0.0-6.0-0.57","JOSC","3","m","rechts","24","","fixation","","","",""
"853","img/120_210.png","70","image-keyboard-response","121","106414","0.0-6.0-1.57","JOSC","3","m","rechts","24","","","object","f","120","true"
"null","<div style=""font-size:60px;"">+</div>","null","html-keyboard-response","122","106915","0.0-6.0-0.58","JOSC","3","m","rechts","24","","fixation","","","",""
"811","img/150_60.png","70","image-keyboard-response","123","107727","0.0-6.0-1.58","JOSC","3","m","rechts","24","","","object","f","150","true"
"null","<div style=""font-size:60px;"">+</div>","null","html-keyboard-response","124","108129","0.0-6.0-0.59","JOSC","3","m","rechts","24","","fixation","","","",""
"1461","img/L150_180.png","74","image-keyboard-response","125","109590","0.0-6.0-1.59","JOSC","3","m","rechts","24","","","object","j","150","true"
"null","<div style=""font-size:60px;"">+</div>","null","html-keyboard-response","126","109942","0.0-6.0-0.60","JOSC","3","m","rechts","24","","fixation","","","",""
"800","img/0_300.png","70","image-keyboard-response","127","110742","0.0-6.0-1.60","JOSC","3","m","rechts","24","","","object","f","0","true"
"null","<div style=""font-size:60px;"">+</div>","null","html-keyboard-response","128","111044","0.0-6.0-0.61","JOSC","3","m","rechts","24","","fixation","","","",""
"796","img/90_300.png","74","image-keyboard-response","129","111840","0.0-6.0-1.61","JOSC","3","m","rechts","24","","","object","j","90","true"
"null","<div style=""font-size:60px;"">+</div>","null","html-keyboard-response","130","112142","0.0-6.0-0.62","JOSC","3","m","rechts","24","","fixation","","","",""
"1004","img/30_90.png","74","image-keyboard-response","131","113147","0.0-6.0-1.62","JOSC","3","m","rechts","24","","","object","j","30","true"
"null","<div style=""font-size:60px;"">+</div>","null","html-keyboard-response","132","113598","0.0-6.0-0.63","JOSC","3","m","rechts","24","","fixation","","","",""
"789","img/30_300.png","70","image-keyboard-response","133","114388","0.0-6.0-1.63","JOSC","3","m","rechts","24","","","object","f","30","true"
"null","<div style=""font-size:60px;"">+</div>","null","html-keyboard-response","134","114740","0.0-6.0-0.64","JOSC","3","m","rechts","24","","fixation","","","",""
"1198","img/60_270.png","70","image-keyboard-response","135","115938","0.0-6.0-1.64","JOSC","3","m","rechts","24","","","object","f","60","true"
"null","<div style=""font-size:60px;"">+</div>","null","html-keyboard-response","136","116390","0.0-6.0-0.65","JOSC","3","m","rechts","24","","fixation","","","",""
"802","img/0_210.png","70","image-keyboard-response","137","117193","0.0-6.0-1.65","JOSC","3","m","rechts","24","","","object","f","0","true"
"null","<div style=""font-size:60px;"">+</div>","null","html-keyboard-response","138","117544","0.0-6.0-0.66","JOSC","3","m","rechts","24","","fixation","","","",""
"834","img/0_120.png","74","image-keyboard-response","139","118380","0.0-6.0-1.66","JOSC","3","m","rechts","24","","","object","j","0","true"
"null","<div style=""font-size:60px;"">+</div>","null","html-keyboard-response","140","118681","0.0-6.0-0.67","JOSC","3","m","rechts","24","","fixation","","","",""
"945","img/90_210.png","70","image-keyboard-response","141","119628","0.0-6.0-1.67","JOSC","3","m","rechts","24","","","object","f","90","true"
"null","<div style=""font-size:60px;"">+</div>","null","html-keyboard-response","142","120129","0.0-6.0-0.68","JOSC","3","m","rechts","24","","fixation","","","",""
"996","img/30_60.png","74","image-keyboard-response","143","121127","0.0-6.0-1.68","JOSC","3","m","rechts","24","","","object","j","30","true"
"null","<div style=""font-size:60px;"">+</div>","null","html-keyboard-response","144","121628","0.0-6.0-0.69","JOSC","3","m","rechts","24","","fixation","","","",""
"696","img/30_240.png","70","image-keyboard-response","145","122326","0.0-6.0-1.69","JOSC","3","m","rechts","24","","","object","f","30","true"
"null","<div style=""font-size:60px;"">+</div>","null","html-keyboard-response","146","122827","0.0-6.0-0.70","JOSC","3","m","rechts","24","","fixation","","","",""
"687","img/120_330.png","74","image-keyboard-response","147","123515","0.0-6.0-1.70","JOSC","3","m","rechts","24","","","object","j","120","true"
"null","<div style=""font-size:60px;"">+</div>","null","html-keyboard-response","148","123867","0.0-6.0-0.71","JOSC","3","m","rechts","24","","fixation","","","",""
"1091","img/150_120.png","70","image-keyboard-response","149","124959","0.0-6.0-1.71","JOSC","3","m","rechts","24","","","object","f","150","true"
"null","<div style=""font-size:60px;"">+</div>","null","html-keyboard-response","150","125361","0.0-6.0-0.72","JOSC","3","m","rechts","24","","fixation","","","",""
"709","img/0_150.png","74","image-keyboard-response","151","126071","0.0-6.0-1.72","JOSC","3","m","rechts","24","","","object","j","0","true"
"null","<div style=""font-size:60px;"">+</div>","null","html-keyboard-response","152","126523","0.0-6.0-0.73","JOSC","3","m","rechts","24","","fixation","","","",""
"938","img/30_180.png","70","image-keyboard-response","153","127462","0.0-6.0-1.73","JOSC","3","m","rechts","24","","","object","f","30","true"
"null","<div style=""font-size:60px;"">+</div>","null","html-keyboard-response","154","127764","0.0-6.0-0.74","JOSC","3","m","rechts","24","","fixation","","","",""
"764","img/150_300.png","74","image-keyboard-response","155","128529","0.0-6.0-1.74","JOSC","3","m","rechts","24","","","object","j","150","true"
"null","<div style=""font-size:60px;"">+</div>","null","html-keyboard-response","156","128981","0.0-6.0-0.75","JOSC","3","m","rechts","24","","fixation","","","",""
"1296","img/90_240.png","70","image-keyboard-response","157","130277","0.0-6.0-1.75","JOSC","3","m","rechts","24","","","object","f","90","true"
"null","<div style=""font-size:60px;"">+</div>","null","html-keyboard-response","158","130779","0.0-6.0-0.76","JOSC","3","m","rechts","24","","fixation","","","",""
"919","img/60_210.png","70","image-keyboard-response","159","131698","0.0-6.0-1.76","JOSC","3","m","rechts","24","","","object","f","60","true"
"null","<div style=""font-size:60px;"">+</div>","null","html-keyboard-response","160","132200","0.0-6.0-0.77","JOSC","3","m","rechts","24","","fixation","","","",""
"805","img/L30_180.png","74","image-keyboard-response","161","133005","0.0-6.0-1.77","JOSC","3","m","rechts","24","","","object","j","30","true"
"null","<div style=""font-size:60px;"">+</div>","null","html-keyboard-response","162","133307","0.0-6.0-0.78","JOSC","3","m","rechts","24","","fixation","","","",""
"998","img/150_180.png","70","image-keyboard-response","163","134306","0.0-6.0-1.78","JOSC","3","m","rechts","24","","","object","f","150","true"
"null","<div style=""font-size:60px;"">+</div>","null","html-keyboard-response","164","134758","0.0-6.0-0.79","JOSC","3","m","rechts","24","","fixation","","","",""
"836","img/120_90.png","70","image-keyboard-response","165","135595","0.0-6.0-1.79","JOSC","3","m","rechts","24","","","object","f","120","true"
"null","<div style=""font-size:60px;"">+</div>","null","html-keyboard-response","166","135896","0.0-6.0-0.80","JOSC","3","m","rechts","24","","fixation","","","",""
"802","img/60_30.png","70","image-keyboard-response","167","136699","0.0-6.0-1.80","JOSC","3","m","rechts","24","","","object","f","60","true"
"null","<div style=""font-size:60px;"">+</div>","null","html-keyboard-response","168","137000","0.0-6.0-0.81","JOSC","3","m","rechts","24","","fixation","","","",""
"1054","img/120_180.png","70","image-keyboard-response","169","138055","0.0-6.0-1.81","JOSC","3","m","rechts","24","","","object","f","120","true"
"null","<div style=""font-size:60px;"">+</div>","null","html-keyboard-response","170","138557","0.0-6.0-0.82","JOSC","3","m","rechts","24","","fixation","","","",""
"1065","img/60_90.png","74","image-keyboard-response","171","139622","0.0-6.0-1.82","JOSC","3","m","rechts","24","","","object","j","60","true"
"null","<div style=""font-size:60px;"">+</div>","null","html-keyboard-response","172","139924","0.0-6.0-0.83","JOSC","3","m","rechts","24","","fixation","","","",""
"954","img/60_180.png","70","image-keyboard-response","173","140880","0.0-6.0-1.83","JOSC","3","m","rechts","24","","","object","f","60","true"
"null","<div style=""font-size:60px;"">+</div>","null","html-keyboard-response","174","141331","0.0-6.0-0.84","JOSC","3","m","rechts","24","","fixation","","","",""
"768","img/0_90.png","74","image-keyboard-response","175","142100","0.0-6.0-1.84","JOSC","3","m","rechts","24","","","object","j","0","true"
"null","<div style=""font-size:60px;"">+</div>","null","html-keyboard-response","176","142602","0.0-6.0-0.85","JOSC","3","m","rechts","24","","fixation","","","",""
"716","img/0_240.png","70","image-keyboard-response","177","143318","0.0-6.0-1.85","JOSC","3","m","rechts","24","","","object","f","0","true"
"null","<div style=""font-size:60px;"">+</div>","null","html-keyboard-response","178","143620","0.0-6.0-0.86","JOSC","3","m","rechts","24","","fixation","","","",""
"1076","img/60_150.png","74","image-keyboard-response","179","144696","0.0-6.0-1.86","JOSC","3","m","rechts","24","","","object","j","60","true"
"null","<div style=""font-size:60px;"">+</div>","null","html-keyboard-response","180","144997","0.0-6.0-0.87","JOSC","3","m","rechts","24","","fixation","","","",""
"1007","img/150_240.png","70","image-keyboard-response","181","146006","0.0-6.0-1.87","JOSC","3","m","rechts","24","","","object","j","150","false"
"null","<div style=""font-size:60px;"">+</div>","null","html-keyboard-response","182","146358","0.0-6.0-0.88","JOSC","3","m","rechts","24","","fixation","","","",""
"945","img/90_30.png","70","image-keyboard-response","183","147303","0.0-6.0-1.88","JOSC","3","m","rechts","24","","","object","f","90","true"
"null","<div style=""font-size:60px;"">+</div>","null","html-keyboard-response","184","147604","0.0-6.0-0.89","JOSC","3","m","rechts","24","","fixation","","","",""
"927","img/90_150.png","74","image-keyboard-response","185","148532","0.0-6.0-1.89","JOSC","3","m","rechts","24","","","object","j","90","true"
"null","<div style=""font-size:60px;"">+</div>","null","html-keyboard-response","186","149034","0.0-6.0-0.90","JOSC","3","m","rechts","24","","fixation","","","",""
"743","img/0_330.png","70","image-keyboard-response","187","149777","0.0-6.0-1.90","JOSC","3","m","rechts","24","","","object","f","0","true"
"null","<div style=""font-size:60px;"">+</div>","null","html-keyboard-response","188","150079","0.0-6.0-0.91","JOSC","3","m","rechts","24","","fixation","","","",""
"953","img/120_270.png","74","image-keyboard-response","189","151032","0.0-6.0-1.91","JOSC","3","m","rechts","24","","","object","j","120","true"
"null","<div style=""font-size:60px;"">+</div>","null","html-keyboard-response","190","151333","0.0-6.0-0.92","JOSC","3","m","rechts","24","","fixation","","","",""
"1005","img/L120_180.png","74","image-keyboard-response","191","152339","0.0-6.0-1.92","JOSC","3","m","rechts","24","","","object","j","120","true"
"null","<div style=""font-size:60px;"">+</div>","null","html-keyboard-response","192","152640","0.0-6.0-0.93","JOSC","3","m","rechts","24","","fixation","","","",""
"711","img/120_30.png","70","image-keyboard-response","193","153352","0.0-6.0-1.93","JOSC","3","m","rechts","24","","","object","f","120","true"
"null","<div style=""font-size:60px;"">+</div>","null","html-keyboard-response","194","153803","0.0-6.0-0.94","JOSC","3","m","rechts","24","","fixation","","","",""
"887","img/L60_180.png","74","image-keyboard-response","195","154692","0.0-6.0-1.94","JOSC","3","m","rechts","24","","","object","j","60","true"
"null","<div style=""font-size:60px;"">+</div>","null","html-keyboard-response","196","155143","0.0-6.0-0.95","JOSC","3","m","rechts","24","","fixation","","","",""
"757","img/30_120.png","74","image-keyboard-response","197","155902","0.0-6.0-1.95","JOSC","3","m","rechts","24","","","object","j","30","true"
"null","<div style=""font-size:60px;"">+</div>","null","html-keyboard-response","198","156303","0.0-6.0-0.96","JOSC","3","m","rechts","24","","fixation","","","",""
"1075","img/150_90.png","70","image-keyboard-response","199","157379","0.0-6.0-1.96","JOSC","3","m","rechts","24","","","object","f","150","true"
"null","<div style=""font-size:60px;"">+</div>","null","html-keyboard-response","200","157680","0.0-6.0-0.97","JOSC","3","m","rechts","24","","fixation","","","",""
"754","img/0_60.png","74","image-keyboard-response","201","158435","0.0-6.0-1.97","JOSC","3","m","rechts","24","","","object","j","0","true"
"null","<div style=""font-size:60px;"">+</div>","null","html-keyboard-response","202","158787","0.0-6.0-0.98","JOSC","3","m","rechts","24","","fixation","","","",""
"986","img/30_270.png","70","image-keyboard-response","203","159774","0.0-6.0-1.98","JOSC","3","m","rechts","24","","","object","f","30","true"
"null","<div style=""font-size:60px;"">+</div>","null","html-keyboard-response","204","160076","0.0-6.0-0.99","JOSC","3","m","rechts","24","","fixation","","","",""
"1397","img/150_270.png","74","image-keyboard-response","205","161474","0.0-6.0-1.99","JOSC","3","m","rechts","24","","","object","j","150","true"
"null","<div style=""font-size:60px;"">+</div>","null","html-keyboard-response","206","161876","0.0-6.0-0.100","JOSC","3","m","rechts","24","","fixation","","","",""
"786","img/0_270.png","70","image-keyboard-response","207","162663","0.0-6.0-1.100","JOSC","3","m","rechts","24","","","object","f","0","true"
"null","<div style=""font-size:60px;"">+</div>","null","html-keyboard-response","208","162965","0.0-6.0-0.101","JOSC","3","m","rechts","24","","fixation","","","",""
"874","img/90_60.png","70","image-keyboard-response","209","163840","0.0-6.0-1.101","JOSC","3","m","rechts","24","","","object","f","90","true"
"null","<div style=""font-size:60px;"">+</div>","null","html-keyboard-response","210","164142","0.0-6.0-0.102","JOSC","3","m","rechts","24","","fixation","","","",""
"1074","img/L90_180.png","74","image-keyboard-response","211","165216","0.0-6.0-1.102","JOSC","3","m","rechts","24","","","object","j","90","true"
"null","<div style=""font-size:60px;"">+</div>","null","html-keyboard-response","212","165667","0.0-6.0-0.103","JOSC","3","m","rechts","24","","fixation","","","",""
"778","img/60_330.png","74","image-keyboard-response","213","166446","0.0-6.0-1.103","JOSC","3","m","rechts","24","","","object","j","60","true"
"null","<div style=""font-size:60px;"">+</div>","null","html-keyboard-response","214","166898","0.0-6.0-0.104","JOSC","3","m","rechts","24","","fixation","","","",""
"840","img/90_180.png","70","image-keyboard-response","215","167738","0.0-6.0-1.104","JOSC","3","m","rechts","24","","","object","f","90","true"
"null","<div style=""font-size:60px;"">+</div>","null","html-keyboard-response","216","168239","0.0-6.0-0.105","JOSC","3","m","rechts","24","","fixation","","","",""
"871","img/30_300.png","70","image-keyboard-response","217","169110","0.0-6.0-1.105","JOSC","3","m","rechts","24","","","object","f","30","true"
"null","<div style=""font-size:60px;"">+</div>","null","html-keyboard-response","218","169461","0.0-6.0-0.106","JOSC","3","m","rechts","24","","fixation","","","",""
"1078","img/120_150.png","74","image-keyboard-response","219","170540","0.0-6.0-1.106","JOSC","3","m","rechts","24","","","object","j","120","true"
"null","<div style=""font-size:60px;"">+</div>","null","html-keyboard-response","220","171041","0.0-6.0-0.107","JOSC","3","m","rechts","24","","fixation","","","",""
"780","img/30_180.png","70","image-keyboard-response","221","171822","0.0-6.0-1.107","JOSC","3","m","rechts","24","","","object","f","30","true"
"null","<div style=""font-size:60px;"">+</div>","null","html-keyboard-response","222","172123","0.0-6.0-0.108","JOSC","3","m","rechts","24","","fixation","","","",""
"877","img/90_30.png","70","image-keyboard-response","223","173002","0.0-6.0-1.108","JOSC","3","m","rechts","24","","","object","f","90","true"
"null","<div style=""font-size:60px;"">+</div>","null","html-keyboard-response","224","173353","0.0-6.0-0.109","JOSC","3","m","rechts","24","","fixation","","","",""
"1070","img/60_90.png","70","image-keyboard-response","225","174424","0.0-6.0-1.109","JOSC","3","m","rechts","24","","","object","j","60","false"
"null","<div style=""font-size:60px;"">+</div>","null","html-keyboard-response","226","174926","0.0-6.0-0.110","JOSC","3","m","rechts","24","","fixation","","","",""
"980","img/30_90.png","74","image-keyboard-response","227","175906","0.0-6.0-1.110","JOSC","3","m","rechts","24","","","object","j","30","true"
"null","<div style=""font-size:60px;"">+</div>","null","html-keyboard-response","228","176308","0.0-6.0-0.111","JOSC","3","m","rechts","24","","fixation","","","",""
"911","img/90_330.png","74","image-keyboard-response","229","177220","0.0-6.0-1.111","JOSC","3","m","rechts","24","","","object","j","90","true"
"null","<div style=""font-size:60px;"">+</div>","null","html-keyboard-response","230","177622","0.0-6.0-0.112","JOSC","3","m","rechts","24","","fixation","","","",""
"1670","img/90_210.png","70","image-keyboard-response","231","179293","0.0-6.0-1.112","JOSC","3","m","rechts","24","","","object","f","90","true"
"null","<div style=""font-size:60px;"">+</div>","null","html-keyboard-response","232","179695","0.0-6.0-0.113","JOSC","3","m","rechts","24","","fixation","","","",""
"830","img/L60_180.png","74","image-keyboard-response","233","180525","0.0-6.0-1.113","JOSC","3","m","rechts","24","","","object","j","60","true"
"null","<div style=""font-size:60px;"">+</div>","null","html-keyboard-response","234","180977","0.0-6.0-0.114","JOSC","3","m","rechts","24","","fixation","","","",""
"784","img/90_300.png","74","image-keyboard-response","235","181761","0.0-6.0-1.114","JOSC","3","m","rechts","24","","","object","j","90","true"
"null","<div style=""font-size:60px;"">+</div>","null","html-keyboard-response","236","182263","0.0-6.0-0.115","JOSC","3","m","rechts","24","","fixation","","","",""
"1407","img/90_120.png","74","image-keyboard-response","237","183670","0.0-6.0-1.115","JOSC","3","m","rechts","24","","","object","j","90","true"
"null","<div style=""font-size:60px;"">+</div>","null","html-keyboard-response","238","184172","0.0-6.0-0.116","JOSC","3","m","rechts","24","","fixation","","","",""
"1433","img/90_240.png","70","image-keyboard-response","239","185605","0.0-6.0-1.116","JOSC","3","m","rechts","24","","","object","f","90","true"
"null","<div style=""font-size:60px;"">+</div>","null","html-keyboard-response","240","185956","0.0-6.0-0.117","JOSC","3","m","rechts","24","","fixation","","","",""
"681","img/120_330.png","74","image-keyboard-response","241","186639","0.0-6.0-1.117","JOSC","3","m","rechts","24","","","object","j","120","true"
"null","<div style=""font-size:60px;"">+</div>","null","html-keyboard-response","242","187040","0.0-6.0-0.118","JOSC","3","m","rechts","24","","fixation","","","",""
"788","img/150_300.png","74","image-keyboard-response","243","187829","0.0-6.0-1.118","JOSC","3","m","rechts","24","","","object","j","150","true"
"null","<div style=""font-size:60px;"">+</div>","null","html-keyboard-response","244","188131","0.0-6.0-0.119","JOSC","3","m","rechts","24","","fixation","","","",""
"1078","img/120_210.png","70","image-keyboard-response","245","189209","0.0-6.0-1.119","JOSC","3","m","rechts","24","","","object","f","120","true"
"null","<div style=""font-size:60px;"">+</div>","null","html-keyboard-response","246","189660","0.0-6.0-0.120","JOSC","3","m","rechts","24","","fixation","","","",""
"1115","img/L30_180.png","74","image-keyboard-response","247","190775","0.0-6.0-1.120","JOSC","3","m","rechts","24","","","object","j","30","true"
"null","<div style=""font-size:60px;"">+</div>","null","html-keyboard-response","248","191226","0.0-6.0-0.121","JOSC","3","m","rechts","24","","fixation","","","",""
"770","img/60_30.png","70","image-keyboard-response","249","191997","0.0-6.0-1.121","JOSC","3","m","rechts","24","","","object","f","60","true"
"null","<div style=""font-size:60px;"">+</div>","null","html-keyboard-response","250","192299","0.0-6.0-0.122","JOSC","3","m","rechts","24","","fixation","","","",""
"757","img/0_90.png","74","image-keyboard-response","251","193057","0.0-6.0-1.122","JOSC","3","m","rechts","24","","","object","j","0","true"
"null","<div style=""font-size:60px;"">+</div>","null","html-keyboard-response","252","193509","0.0-6.0-0.123","JOSC","3","m","rechts","24","","fixation","","","",""
"596","img/0_210.png","70","image-keyboard-response","253","194105","0.0-6.0-1.123","JOSC","3","m","rechts","24","","","object","f","0","true"
"null","<div style=""font-size:60px;"">+</div>","null","html-keyboard-response","254","194557","0.0-6.0-0.124","JOSC","3","m","rechts","24","","fixation","","","",""
"659","img/0_60.png","74","image-keyboard-response","255","195217","0.0-6.0-1.124","JOSC","3","m","rechts","24","","","object","j","0","true"
"null","<div style=""font-size:60px;"">+</div>","null","html-keyboard-response","256","195569","0.0-6.0-0.125","JOSC","3","m","rechts","24","","fixation","","","",""
"856","img/150_270.png","74","image-keyboard-response","257","196426","0.0-6.0-1.125","JOSC","3","m","rechts","24","","","object","j","150","true"
"null","<div style=""font-size:60px;"">+</div>","null","html-keyboard-response","258","196828","0.0-6.0-0.126","JOSC","3","m","rechts","24","","fixation","","","",""
"1116","img/0_330.png","70","image-keyboard-response","259","197945","0.0-6.0-1.126","JOSC","3","m","rechts","24","","","object","f","0","true"
"null","<div style=""font-size:60px;"">+</div>","null","html-keyboard-response","260","198297","0.0-6.0-0.127","JOSC","3","m","rechts","24","","fixation","","","",""
"781","img/30_270.png","70","image-keyboard-response","261","199078","0.0-6.0-1.127","JOSC","3","m","rechts","24","","","object","f","30","true"
"null","<div style=""font-size:60px;"">+</div>","null","html-keyboard-response","262","199379","0.0-6.0-0.128","JOSC","3","m","rechts","24","","fixation","","","",""
"776","img/150_90.png","74","image-keyboard-response","263","200156","0.0-6.0-1.128","JOSC","3","m","rechts","24","","","object","f","150","false"
"null","<div style=""font-size:60px;"">+</div>","null","html-keyboard-response","264","200608","0.0-6.0-0.129","JOSC","3","m","rechts","24","","fixation","","","",""
"758","img/150_180.png","74","image-keyboard-response","265","201366","0.0-6.0-1.129","JOSC","3","m","rechts","24","","","object","f","150","false"
"null","<div style=""font-size:60px;"">+</div>","null","html-keyboard-response","266","201818","0.0-6.0-0.130","JOSC","3","m","rechts","24","","fixation","","","",""
"598","img/0_270.png","70","image-keyboard-response","267","202417","0.0-6.0-1.130","JOSC","3","m","rechts","24","","","object","f","0","true"
"null","<div style=""font-size:60px;"">+</div>","null","html-keyboard-response","268","202919","0.0-6.0-0.131","JOSC","3","m","rechts","24","","fixation","","","",""
"686","img/90_150.png","74","image-keyboard-response","269","203605","0.0-6.0-1.131","JOSC","3","m","rechts","24","","","object","j","90","true"
"null","<div style=""font-size:60px;"">+</div>","null","html-keyboard-response","270","204006","0.0-6.0-0.132","JOSC","3","m","rechts","24","","fixation","","","",""
"827","img/60_210.png","70","image-keyboard-response","271","204834","0.0-6.0-1.132","JOSC","3","m","rechts","24","","","object","f","60","true"
"null","<div style=""font-size:60px;"">+</div>","null","html-keyboard-response","272","205236","0.0-6.0-0.133","JOSC","3","m","rechts","24","","fixation","","","",""
"773","img/0_30.png","74","image-keyboard-response","273","206009","0.0-6.0-1.133","JOSC","3","m","rechts","24","","","object","j","0","true"
"null","<div style=""font-size:60px;"">+</div>","null","html-keyboard-response","274","206461","0.0-6.0-0.134","JOSC","3","m","rechts","24","","fixation","","","",""
"887","img/120_90.png","70","image-keyboard-response","275","207349","0.0-6.0-1.134","JOSC","3","m","rechts","24","","","object","f","120","true"
"null","<div style=""font-size:60px;"">+</div>","null","html-keyboard-response","276","207750","0.0-6.0-0.135","JOSC","3","m","rechts","24","","fixation","","","",""
"835","img/90_60.png","70","image-keyboard-response","277","208587","0.0-6.0-1.135","JOSC","3","m","rechts","24","","","object","f","90","true"
"null","<div style=""font-size:60px;"">+</div>","null","html-keyboard-response","278","209038","0.0-6.0-0.136","JOSC","3","m","rechts","24","","fixation","","","",""
"929","img/L120_180.png","74","image-keyboard-response","279","209969","0.0-6.0-1.136","JOSC","3","m","rechts","24","","","object","j","120","true"
"null","<div style=""font-size:60px;"">+</div>","null","html-keyboard-response","280","210370","0.0-6.0-0.137","JOSC","3","m","rechts","24","","fixation","","","",""
"886","img/30_240.png","70","image-keyboard-response","281","211258","0.0-6.0-1.137","JOSC","3","m","rechts","24","","","object","f","30","true"
"null","<div style=""font-size:60px;"">+</div>","null","html-keyboard-response","282","211559","0.0-6.0-0.138","JOSC","3","m","rechts","24","","fixation","","","",""
"913","img/0_150.png","74","image-keyboard-response","283","212473","0.0-6.0-1.138","JOSC","3","m","rechts","24","","","object","j","0","true"
"null","<div style=""font-size:60px;"">+</div>","null","html-keyboard-response","284","212875","0.0-6.0-0.139","JOSC","3","m","rechts","24","","fixation","","","",""
"693","img/120_30.png","70","image-keyboard-response","285","213569","0.0-6.0-1.139","JOSC","3","m","rechts","24","","","object","f","120","true"
"null","<div style=""font-size:60px;"">+</div>","null","html-keyboard-response","286","213970","0.0-6.0-0.140","JOSC","3","m","rechts","24","","fixation","","","",""
"765","img/60_330.png","74","image-keyboard-response","287","214736","0.0-6.0-1.140","JOSC","3","m","rechts","24","","","object","j","60","true"
"null","<div style=""font-size:60px;"">+</div>","null","html-keyboard-response","288","215238","0.0-6.0-0.141","JOSC","3","m","rechts","24","","fixation","","","",""
"666","img/150_60.png","70","image-keyboard-response","289","215905","0.0-6.0-1.141","JOSC","3","m","rechts","24","","","object","f","150","true"
"null","<div style=""font-size:60px;"">+</div>","null","html-keyboard-response","290","216307","0.0-6.0-0.142","JOSC","3","m","rechts","24","","fixation","","","",""
"754","img/0_120.png","74","image-keyboard-response","291","217061","0.0-6.0-1.142","JOSC","3","m","rechts","24","","","object","j","0","true"
"null","<div style=""font-size:60px;"">+</div>","null","html-keyboard-response","292","217363","0.0-6.0-0.143","JOSC","3","m","rechts","24","","fixation","","","",""
"932","img/60_150.png","74","image-keyboard-response","293","218295","0.0-6.0-1.143","JOSC","3","m","rechts","24","","","object","j","60","true"
"null","<div style=""font-size:60px;"">+</div>","null","html-keyboard-response","294","218697","0.0-6.0-0.144","JOSC","3","m","rechts","24","","fixation","","","",""
"729","img/0_300.png","70","image-keyboard-response","295","219426","0.0-6.0-1.144","JOSC","3","m","rechts","24","","","object","f","0","true"
"null","<div style=""font-size:60px;"">+</div>","null","html-keyboard-response","296","219727","0.0-6.0-0.145","JOSC","3","m","rechts","24","","fixation","","","",""
"920","img/150_240.png","74","image-keyboard-response","297","220648","0.0-6.0-1.145","JOSC","3","m","rechts","24","","","object","j","150","true"
"null","<div style=""font-size:60px;"">+</div>","null","html-keyboard-response","298","220950","0.0-6.0-0.146","JOSC","3","m","rechts","24","","fixation","","","",""
"1082","img/L150_180.png","70","image-keyboard-response","299","222033","0.0-6.0-1.146","JOSC","3","m","rechts","24","","","object","j","150","false"
"null","<div style=""font-size:60px;"">+</div>","null","html-keyboard-response","300","222385","0.0-6.0-0.147","JOSC","3","m","rechts","24","","fixation","","","",""
"1249","img/60_180.png","70","image-keyboard-response","301","223635","0.0-6.0-1.147","JOSC","3","m","rechts","24","","","object","f","60","true"
"null","<div style=""font-size:60px;"">+</div>","null","html-keyboard-response","302","224087","0.0-6.0-0.148","JOSC","3","m","rechts","24","","fixation","","","",""
"2083","img/150_120.png","74","image-keyboard-response","303","226171","0.0-6.0-1.148","JOSC","3","m","rechts","24","","","object","f","150","false"
"null","<div style=""font-size:60px;"">+</div>","null","html-keyboard-response","304","226573","0.0-6.0-0.149","JOSC","3","m","rechts","24","","fixation","","","",""
"882","img/120_180.png","70","image-keyboard-response","305","227456","0.0-6.0-1.149","JOSC","3","m","rechts","24","","","object","f","120","true"
"null","<div style=""font-size:60px;"">+</div>","null","html-keyboard-response","306","227808","0.0-6.0-0.150","JOSC","3","m","rechts","24","","fixation","","","",""
"944","img/L90_180.png","74","image-keyboard-response","307","228754","0.0-6.0-1.150","JOSC","3","m","rechts","24","","","object","j","90","true"
"null","<div style=""font-size:60px;"">+</div>","null","html-keyboard-response","308","229256","0.0-6.0-0.151","JOSC","3","m","rechts","24","","fixation","","","",""
"900","img/60_270.png","70","image-keyboard-response","309","230156","0.0-6.0-1.151","JOSC","3","m","rechts","24","","","object","f","60","true"
"null","<div style=""font-size:60px;"">+</div>","null","html-keyboard-response","310","230557","0.0-6.0-0.152","JOSC","3","m","rechts","24","","fixation","","","",""
"923","img/120_270.png","74","image-keyboard-response","311","231482","0.0-6.0-1.152","JOSC","3","m","rechts","24","","","object","j","120","true"
"null","<div style=""font-size:60px;"">+</div>","null","html-keyboard-response","312","231833","0.0-6.0-0.153","JOSC","3","m","rechts","24","","fixation","","","",""
"831","img/30_120.png","74","image-keyboard-response","313","232664","0.0-6.0-1.153","JOSC","3","m","rechts","24","","","object","j","30","true"
"null","<div style=""font-size:60px;"">+</div>","null","html-keyboard-response","314","233116","0.0-6.0-0.154","JOSC","3","m","rechts","24","","fixation","","","",""
"970","img/30_60.png","74","image-keyboard-response","315","234087","0.0-6.0-1.154","JOSC","3","m","rechts","24","","","object","j","30","true"
"null","<div style=""font-size:60px;"">+</div>","null","html-keyboard-response","316","234389","0.0-6.0-0.155","JOSC","3","m","rechts","24","","fixation","","","",""
"876","img/0_240.png","70","image-keyboard-response","317","235266","0.0-6.0-1.155","JOSC","3","m","rechts","24","","","object","f","0","true"
"null","<div style=""font-size:60px;"">+</div>","null","html-keyboard-response","318","235568","0.0-6.0-0.156","JOSC","3","m","rechts","24","","fixation","","","",""
"675","img/90_330.png","74","image-keyboard-response","319","236244","0.0-6.0-1.156","JOSC","3","m","rechts","24","","","object","j","90","true"
"null","<div style=""font-size:60px;"">+</div>","null","html-keyboard-response","320","236746","0.0-6.0-0.157","JOSC","3","m","rechts","24","","fixation","","","",""
"736","img/0_330.png","70","image-keyboard-response","321","237483","0.0-6.0-1.157","JOSC","3","m","rechts","24","","","object","f","0","true"
"null","<div style=""font-size:60px;"">+</div>","null","html-keyboard-response","322","237985","0.0-6.0-0.158","JOSC","3","m","rechts","24","","fixation","","","",""
"682","img/L150_180.png","74","image-keyboard-response","323","238668","0.0-6.0-1.158","JOSC","3","m","rechts","24","","","object","j","150","true"
"null","<div style=""font-size:60px;"">+</div>","null","html-keyboard-response","324","239070","0.0-6.0-0.159","JOSC","3","m","rechts","24","","fixation","","","",""
"788","img/60_270.png","70","image-keyboard-response","325","239858","0.0-6.0-1.159","JOSC","3","m","rechts","24","","","object","f","60","true"
"null","<div style=""font-size:60px;"">+</div>","null","html-keyboard-response","326","240159","0.0-6.0-0.160","JOSC","3","m","rechts","24","","fixation","","","",""
"934","img/0_60.png","74","image-keyboard-response","327","241094","0.0-6.0-1.160","JOSC","3","m","rechts","24","","","object","j","0","true"
"null","<div style=""font-size:60px;"">+</div>","null","html-keyboard-response","328","241396","0.0-6.0-0.161","JOSC","3","m","rechts","24","","fixation","","","",""
"758","img/0_120.png","74","image-keyboard-response","329","242155","0.0-6.0-1.161","JOSC","3","m","rechts","24","","","object","j","0","true"
"null","<div style=""font-size:60px;"">+</div>","null","html-keyboard-response","330","242456","0.0-6.0-0.162","JOSC","3","m","rechts","24","","fixation","","","",""
"804","img/90_150.png","74","image-keyboard-response","331","243260","0.0-6.0-1.162","JOSC","3","m","rechts","24","","","object","j","90","true"
"null","<div style=""font-size:60px;"">+</div>","null","html-keyboard-response","332","243762","0.0-6.0-0.163","JOSC","3","m","rechts","24","","fixation","","","",""
"673","img/30_120.png","74","image-keyboard-response","333","244436","0.0-6.0-1.163","JOSC","3","m","rechts","24","","","object","j","30","true"
"null","<div style=""font-size:60px;"">+</div>","null","html-keyboard-response","334","244738","0.0-6.0-0.164","JOSC","3","m","rechts","24","","fixation","","","",""
"775","img/60_30.png","70","image-keyboard-response","335","245513","0.0-6.0-1.164","JOSC","3","m","rechts","24","","","object","f","60","true"
"null","<div style=""font-size:60px;"">+</div>","null","html-keyboard-response","336","245815","0.0-6.0-0.165","JOSC","3","m","rechts","24","","fixation","","","",""
"613","img/0_300.png","70","image-keyboard-response","337","246430","0.0-6.0-1.165","JOSC","3","m","rechts","24","","","object","f","0","true"
"null","<div style=""font-size:60px;"">+</div>","null","html-keyboard-response","338","246731","0.0-6.0-0.166","JOSC","3","m","rechts","24","","fixation","","","",""
"1454","img/150_240.png","74","image-keyboard-response","339","248186","0.0-6.0-1.166","JOSC","3","m","rechts","24","","","object","j","150","true"
"null","<div style=""font-size:60px;"">+</div>","null","html-keyboard-response","340","248538","0.0-6.0-0.167","JOSC","3","m","rechts","24","","fixation","","","",""
"731","img/30_180.png","70","image-keyboard-response","341","249271","0.0-6.0-1.167","JOSC","3","m","rechts","24","","","object","f","30","true"
"null","<div style=""font-size:60px;"">+</div>","null","html-keyboard-response","342","249672","0.0-6.0-0.168","JOSC","3","m","rechts","24","","fixation","","","",""
"757","img/150_120.png","74","image-keyboard-response","343","250430","0.0-6.0-1.168","JOSC","3","m","rechts","24","","","object","f","150","false"
"null","<div style=""font-size:60px;"">+</div>","null","html-keyboard-response","344","250732","0.0-6.0-0.169","JOSC","3","m","rechts","24","","fixation","","","",""
"1322","img/60_150.png","74","image-keyboard-response","345","252054","0.0-6.0-1.169","JOSC","3","m","rechts","24","","","object","j","60","true"
"null","<div style=""font-size:60px;"">+</div>","null","html-keyboard-response","346","252506","0.0-6.0-0.170","JOSC","3","m","rechts","24","","fixation","","","",""
"889","img/90_240.png","70","image-keyboard-response","347","253397","0.0-6.0-1.170","JOSC","3","m","rechts","24","","","object","f","90","true"
"null","<div style=""font-size:60px;"">+</div>","null","html-keyboard-response","348","253748","0.0-6.0-0.171","JOSC","3","m","rechts","24","","fixation","","","",""
"778","img/0_210.png","70","image-keyboard-response","349","254527","0.0-6.0-1.171","JOSC","3","m","rechts","24","","","object","f","0","true"
"null","<div style=""font-size:60px;"">+</div>","null","html-keyboard-response","350","255029","0.0-6.0-0.172","JOSC","3","m","rechts","24","","fixation","","","",""
"715","img/120_330.png","74","image-keyboard-response","351","255745","0.0-6.0-1.172","JOSC","3","m","rechts","24","","","object","j","120","true"
"null","<div style=""font-size:60px;"">+</div>","null","html-keyboard-response","352","256247","0.0-6.0-0.173","JOSC","3","m","rechts","24","","fixation","","","",""
"679","img/30_300.png","70","image-keyboard-response","353","256927","0.0-6.0-1.173","JOSC","3","m","rechts","24","","","object","f","30","true"
"null","<div style=""font-size:60px;"">+</div>","null","html-keyboard-response","354","257378","0.0-6.0-0.174","JOSC","3","m","rechts","24","","fixation","","","",""
"723","img/0_240.png","70","image-keyboard-response","355","258103","0.0-6.0-1.174","JOSC","3","m","rechts","24","","","object","f","0","true"
"null","<div style=""font-size:60px;"">+</div>","null","html-keyboard-response","356","258504","0.0-6.0-0.175","JOSC","3","m","rechts","24","","fixation","","","",""
"1221","img/60_90.png","74","image-keyboard-response","357","259726","0.0-6.0-1.175","JOSC","3","m","rechts","24","","","object","j","60","true"
"null","<div style=""font-size:60px;"">+</div>","null","html-keyboard-response","358","260077","0.0-6.0-0.176","JOSC","3","m","rechts","24","","fixation","","","",""
"966","img/30_60.png","74","image-keyboard-response","359","261043","0.0-6.0-1.176","JOSC","3","m","rechts","24","","","object","j","30","true"
"null","<div style=""font-size:60px;"">+</div>","null","html-keyboard-response","360","261445","0.0-6.0-0.177","JOSC","3","m","rechts","24","","fixation","","","",""
"713","img/30_90.png","74","image-keyboard-response","361","262159","0.0-6.0-1.177","JOSC","3","m","rechts","24","","","object","j","30","true"
"null","<div style=""font-size:60px;"">+</div>","null","html-keyboard-response","362","262610","0.0-6.0-0.178","JOSC","3","m","rechts","24","","fixation","","","",""
"826","img/90_300.png","74","image-keyboard-response","363","263437","0.0-6.0-1.178","JOSC","3","m","rechts","24","","","object","j","90","true"
"null","<div style=""font-size:60px;"">+</div>","null","html-keyboard-response","364","263889","0.0-6.0-0.179","JOSC","3","m","rechts","24","","fixation","","","",""
"744","img/30_270.png","70","image-keyboard-response","365","264634","0.0-6.0-1.179","JOSC","3","m","rechts","24","","","object","f","30","true"
"null","<div style=""font-size:60px;"">+</div>","null","html-keyboard-response","366","265136","0.0-6.0-0.180","JOSC","3","m","rechts","24","","fixation","","","",""
"677","img/0_150.png","74","image-keyboard-response","367","265814","0.0-6.0-1.180","JOSC","3","m","rechts","24","","","object","j","0","true"
"null","<div style=""font-size:60px;"">+</div>","null","html-keyboard-response","368","266216","0.0-6.0-0.181","JOSC","3","m","rechts","24","","fixation","","","",""
"659","img/90_60.png","70","image-keyboard-response","369","266875","0.0-6.0-1.181","JOSC","3","m","rechts","24","","","object","f","90","true"
"null","<div style=""font-size:60px;"">+</div>","null","html-keyboard-response","370","267327","0.0-6.0-0.182","JOSC","3","m","rechts","24","","fixation","","","",""
"874","img/90_120.png","74","image-keyboard-response","371","268201","0.0-6.0-1.182","JOSC","3","m","rechts","24","","","object","j","90","true"
"null","<div style=""font-size:60px;"">+</div>","null","html-keyboard-response","372","268552","0.0-6.0-0.183","JOSC","3","m","rechts","24","","fixation","","","",""
"1615","img/120_150.png","74","image-keyboard-response","373","270168","0.0-6.0-1.183","JOSC","3","m","rechts","24","","","object","j","120","true"
"null","<div style=""font-size:60px;"">+</div>","null","html-keyboard-response","374","270520","0.0-6.0-0.184","JOSC","3","m","rechts","24","","fixation","","","",""
"785","img/30_240.png","70","image-keyboard-response","375","271305","0.0-6.0-1.184","JOSC","3","m","rechts","24","","","object","f","30","true"
"null","<div style=""font-size:60px;"">+</div>","null","html-keyboard-response","376","271707","0.0-6.0-0.185","JOSC","3","m","rechts","24","","fixation","","","",""
"1006","img/90_210.png","70","image-keyboard-response","377","272713","0.0-6.0-1.185","JOSC","3","m","rechts","24","","","object","f","90","true"
"null","<div style=""font-size:60px;"">+</div>","null","html-keyboard-response","378","273015","0.0-6.0-0.186","JOSC","3","m","rechts","24","","fixation","","","",""
"880","img/120_90.png","74","image-keyboard-response","379","273896","0.0-6.0-1.186","JOSC","3","m","rechts","24","","","object","f","120","false"
"null","<div style=""font-size:60px;"">+</div>","null","html-keyboard-response","380","274248","0.0-6.0-0.187","JOSC","3","m","rechts","24","","fixation","","","",""
"826","img/150_270.png","74","image-keyboard-response","381","275074","0.0-6.0-1.187","JOSC","3","m","rechts","24","","","object","j","150","true"
"null","<div style=""font-size:60px;"">+</div>","null","html-keyboard-response","382","275376","0.0-6.0-0.188","JOSC","3","m","rechts","24","","fixation","","","",""
"1524","img/150_180.png","70","image-keyboard-response","383","276901","0.0-6.0-1.188","JOSC","3","m","rechts","24","","","object","f","150","true"
"null","<div style=""font-size:60px;"">+</div>","null","html-keyboard-response","384","277403","0.0-6.0-0.189","JOSC","3","m","rechts","24","","fixation","","","",""
"926","img/L60_180.png","74","image-keyboard-response","385","278329","0.0-6.0-1.189","JOSC","3","m","rechts","24","","","object","j","60","true"
"null","<div style=""font-size:60px;"">+</div>","null","html-keyboard-response","386","278781","0.0-6.0-0.190","JOSC","3","m","rechts","24","","fixation","","","",""
"921","img/90_180.png","70","image-keyboard-response","387","279702","0.0-6.0-1.190","JOSC","3","m","rechts","24","","","object","f","90","true"
"null","<div style=""font-size:60px;"">+</div>","null","html-keyboard-response","388","280204","0.0-6.0-0.191","JOSC","3","m","rechts","24","","fixation","","","",""
"724","img/0_270.png","70","image-keyboard-response","389","280928","0.0-6.0-1.191","JOSC","3","m","rechts","24","","","object","f","0","true"
"null","<div style=""font-size:60px;"">+</div>","null","html-keyboard-response","390","281379","0.0-6.0-0.192","JOSC","3","m","rechts","24","","fixation","","","",""
"907","img/60_180.png","70","image-keyboard-response","391","282287","0.0-6.0-1.192","JOSC","3","m","rechts","24","","","object","f","60","true"
"null","<div style=""font-size:60px;"">+</div>","null","html-keyboard-response","392","282739","0.0-6.0-0.193","JOSC","3","m","rechts","24","","fixation","","","",""
"1241","img/L120_180.png","74","image-keyboard-response","393","283980","0.0-6.0-1.193","JOSC","3","m","rechts","24","","","object","j","120","true"
"null","<div style=""font-size:60px;"">+</div>","null","html-keyboard-response","394","284332","0.0-6.0-0.194","JOSC","3","m","rechts","24","","fixation","","","",""
"982","img/L90_180.png","74","image-keyboard-response","395","285314","0.0-6.0-1.194","JOSC","3","m","rechts","24","","","object","j","90","true"
"null","<div style=""font-size:60px;"">+</div>","null","html-keyboard-response","396","285766","0.0-6.0-0.195","JOSC","3","m","rechts","24","","fixation","","","",""
"749","img/0_30.png","74","image-keyboard-response","397","286517","0.0-6.0-1.195","JOSC","3","m","rechts","24","","","object","j","0","true"
"null","<div style=""font-size:60px;"">+</div>","null","html-keyboard-response","398","287018","0.0-6.0-0.196","JOSC","3","m","rechts","24","","fixation","","","",""
"1051","img/L30_180.png","74","image-keyboard-response","399","288070","0.0-6.0-1.196","JOSC","3","m","rechts","24","","","object","j","30","true"
"null","<div style=""font-size:60px;"">+</div>","null","html-keyboard-response","400","288422","0.0-6.0-0.197","JOSC","3","m","rechts","24","","fixation","","","",""
"1969","img/150_300.png","74","image-keyboard-response","401","290391","0.0-6.0-1.197","JOSC","3","m","rechts","24","","","object","j","150","true"
"null","<div style=""font-size:60px;"">+</div>","null","html-keyboard-response","402","290893","0.0-6.0-0.198","JOSC","3","m","rechts","24","","fixation","","","",""
"873","img/60_210.png","70","image-keyboard-response","403","291767","0.0-6.0-1.198","JOSC","3","m","rechts","24","","","object","f","60","true"
"null","<div style=""font-size:60px;"">+</div>","null","html-keyboard-response","404","292269","0.0-6.0-0.199","JOSC","3","m","rechts","24","","fixation","","","",""
"1076","img/120_180.png","74","image-keyboard-response","405","293346","0.0-6.0-1.199","JOSC","3","m","rechts","24","","","object","f","120","false"
"null","<div style=""font-size:60px;"">+</div>","null","html-keyboard-response","406","293848","0.0-6.0-0.200","JOSC","3","m","rechts","24","","fixation","","","",""
"1872","img/120_210.png","74","image-keyboard-response","407","295720","0.0-6.0-1.200","JOSC","3","m","rechts","24","","","object","f","120","false"
"null","<div style=""font-size:60px;"">+</div>","null","html-keyboard-response","408","296072","0.0-6.0-0.201","JOSC","3","m","rechts","24","","fixation","","","",""
"805","img/0_90.png","74","image-keyboard-response","409","296878","0.0-6.0-1.201","JOSC","3","m","rechts","24","","","object","j","0","true"
"null","<div style=""font-size:60px;"">+</div>","null","html-keyboard-response","410","297280","0.0-6.0-0.202","JOSC","3","m","rechts","24","","fixation","","","",""
"732","img/60_330.png","74","image-keyboard-response","411","298013","0.0-6.0-1.202","JOSC","3","m","rechts","24","","","object","j","60","true"
"null","<div style=""font-size:60px;"">+</div>","null","html-keyboard-response","412","298515","0.0-6.0-0.203","JOSC","3","m","rechts","24","","fixation","","","",""
"1071","img/150_60.png","70","image-keyboard-response","413","299587","0.0-6.0-1.203","JOSC","3","m","rechts","24","","","object","f","150","true"
"null","<div style=""font-size:60px;"">+</div>","null","html-keyboard-response","414","299888","0.0-6.0-0.204","JOSC","3","m","rechts","24","","fixation","","","",""
"1073","img/120_270.png","74","image-keyboard-response","415","300962","0.0-6.0-1.204","JOSC","3","m","rechts","24","","","object","j","120","true"
"null","<div style=""font-size:60px;"">+</div>","null","html-keyboard-response","416","301363","0.0-6.0-0.205","JOSC","3","m","rechts","24","","fixation","","","",""
"839","img/90_30.png","70","image-keyboard-response","417","302202","0.0-6.0-1.205","JOSC","3","m","rechts","24","","","object","f","90","true"
"null","<div style=""font-size:60px;"">+</div>","null","html-keyboard-response","418","302554","0.0-6.0-0.206","JOSC","3","m","rechts","24","","fixation","","","",""
"921","img/120_30.png","70","image-keyboard-response","419","303476","0.0-6.0-1.206","JOSC","3","m","rechts","24","","","object","f","120","true"
"null","<div style=""font-size:60px;"">+</div>","null","html-keyboard-response","420","303877","0.0-6.0-0.207","JOSC","3","m","rechts","24","","fixation","","","",""
"1076","img/150_90.png","70","image-keyboard-response","421","304954","0.0-6.0-1.207","JOSC","3","m","rechts","24","","","object","f","150","true"
"8066","<p>Du hast in 92% der Versuche korrekt entschieden.</p><p>Deine durchschnittliche Reaktionszeit war  914ms.</p><p>Dr&uuml;cke eine beliebige Taste, um die Session zu beenden. Vielen Dank!</p>","75","html-keyboard-response","422","313022","0.0-7.0","JOSC","3","m","rechts","24","","","","","",""
