"rt","stimulus","key_press","trial_type","trial_index","time_elapsed","internal_node_id","subject","session","sex","handedness","age","responses","test_part","condition","correct_response","angle","correct"
"3581","<p>Mental Rotation Experiment.</p> <p>Dr&uuml;cke eine beliebige Taste, um anzufangen.</p>","74","html-keyboard-response","0","3583","0.0-0.0","JOSC","4","m","rechts","24","","","","","",""
"4656","","","survey-text","1","8241","0.0-1.0","JOSC","4","m","rechts","24","{""Q0"":""JOSC""}","","","","",""
"2743","","","survey-text","2","10984","0.0-2.0","JOSC","4","m","rechts","24","{""Q0"":""4""}","","","","",""
"8174","","","survey-multi-choice","3","19161","0.0-3.0","JOSC","4","m","rechts","24","{""Q0"":""m"",""Q1"":""rechts""}","","","","",""
"2710","","","survey-text","4","21873","0.0-4.0","JOSC","4","m","rechts","24","{""Q0"":""24""}","","","","",""
"71924","<p> Stell dir vor, dass du vor einem runden Tisch stehst, auf dem sich ein blauer Ball am Tischrand befindet. Entlang des Tischrands ist jeweils ein verschieden langer Pfeil. Nun bewegst du dich entlang dieses Pfeils bis an seine Spitze. Wenn du am Ende des Pfeils angekommen bist, schau zur Tischmitte. </p> <img src='img/90_180.png'></img> <br> <p>Entscheide dann, ob der Ball von deiner neuen (vorgestellten) Position links oder rechts von dir liegt.</p> <p>Dr&uuml;cke die <strong>'f'</strong>-Taste f&uuml;r links, die <strong>'j'</strong>-Taste f&uuml;r rechts.</p> <br><p> Das Bild wird jeweils 1 Sekunde lang pr&auml;sentiert. Du hast 3 Sekunden Zeit eine Entscheidung zu treffen.</p>","74","html-keyboard-response","5","93799","0.0-5.0","JOSC","4","m","rechts","24","","","","","",""
"null","<div style=""font-size:60px;"">+</div>","null","html-keyboard-response","6","95201","0.0-6.0-0.0","JOSC","4","m","rechts","24","","fixation","","","",""
"1401","img/30_60.png","74","image-keyboard-response","7","96603","0.0-6.0-1.0","JOSC","4","m","rechts","24","","","self","j","30","true"
"null","<div style=""font-size:60px;"">+</div>","null","html-keyboard-response","8","97055","0.0-6.0-0.1","JOSC","4","m","rechts","24","","fixation","","","",""
"1152","img/150_270.png","74","image-keyboard-response","9","98208","0.0-6.0-1.1","JOSC","4","m","rechts","24","","","self","j","150","true"
"null","<div style=""font-size:60px;"">+</div>","null","html-keyboard-response","10","98611","0.0-6.0-0.2","JOSC","4","m","rechts","24","","fixation","","","",""
"861","img/30_240.png","70","image-keyboard-response","11","99474","0.0-6.0-1.2","JOSC","4","m","rechts","24","","","self","f","30","true"
"null","<div style=""font-size:60px;"">+</div>","null","html-keyboard-response","12","99876","0.0-6.0-0.3","JOSC","4","m","rechts","24","","fixation","","","",""
"786","img/0_270.png","70","image-keyboard-response","13","100664","0.0-6.0-1.3","JOSC","4","m","rechts","24","","","self","f","0","true"
"null","<div style=""font-size:60px;"">+</div>","null","html-keyboard-response","14","101015","0.0-6.0-0.4","JOSC","4","m","rechts","24","","fixation","","","",""
"1055","img/60_180.png","74","image-keyboard-response","15","102071","0.0-6.0-1.4","JOSC","4","m","rechts","24","","","self","j","60","true"
"null","<div style=""font-size:60px;"">+</div>","null","html-keyboard-response","16","102373","0.0-6.0-0.5","JOSC","4","m","rechts","24","","fixation","","","",""
"749","img/0_210.png","70","image-keyboard-response","17","103124","0.0-6.0-1.5","JOSC","4","m","rechts","24","","","self","f","0","true"
"null","<div style=""font-size:60px;"">+</div>","null","html-keyboard-response","18","103525","0.0-6.0-0.6","JOSC","4","m","rechts","24","","fixation","","","",""
"781","img/60_30.png","74","image-keyboard-response","19","104308","0.0-6.0-1.6","JOSC","4","m","rechts","24","","","self","j","60","true"
"null","<div style=""font-size:60px;"">+</div>","null","html-keyboard-response","20","104710","0.0-6.0-0.7","JOSC","4","m","rechts","24","","fixation","","","",""
"941","img/60_270.png","70","image-keyboard-response","21","105652","0.0-6.0-1.7","JOSC","4","m","rechts","24","","","self","f","60","true"
"null","<div style=""font-size:60px;"">+</div>","null","html-keyboard-response","22","106053","0.0-6.0-0.8","JOSC","4","m","rechts","24","","fixation","","","",""
"1083","img/0_120.png","74","image-keyboard-response","23","107138","0.0-6.0-1.8","JOSC","4","m","rechts","24","","","self","j","0","true"
"null","<div style=""font-size:60px;"">+</div>","null","html-keyboard-response","24","107489","0.0-6.0-0.9","JOSC","4","m","rechts","24","","fixation","","","",""
"1089","img/L90_180.png","70","image-keyboard-response","25","108579","0.0-6.0-1.9","JOSC","4","m","rechts","24","","","self","f","90","true"
"null","<div style=""font-size:60px;"">+</div>","null","html-keyboard-response","26","108931","0.0-6.0-0.10","JOSC","4","m","rechts","24","","fixation","","","",""
"685","img/0_240.png","70","image-keyboard-response","27","109617","0.0-6.0-1.10","JOSC","4","m","rechts","24","","","self","f","0","true"
"null","<div style=""font-size:60px;"">+</div>","null","html-keyboard-response","28","109919","0.0-6.0-0.11","JOSC","4","m","rechts","24","","fixation","","","",""
"787","img/30_120.png","74","image-keyboard-response","29","110707","0.0-6.0-1.11","JOSC","4","m","rechts","24","","","self","j","30","true"
"null","<div style=""font-size:60px;"">+</div>","null","html-keyboard-response","30","111209","0.0-6.0-0.12","JOSC","4","m","rechts","24","","fixation","","","",""
"777","img/150_120.png","70","image-keyboard-response","31","111987","0.0-6.0-1.12","JOSC","4","m","rechts","24","","","self","f","150","true"
"null","<div style=""font-size:60px;"">+</div>","null","html-keyboard-response","32","112339","0.0-6.0-0.13","JOSC","4","m","rechts","24","","fixation","","","",""
"911","img/120_270.png","74","image-keyboard-response","33","113252","0.0-6.0-1.13","JOSC","4","m","rechts","24","","","self","j","120","true"
"null","<div style=""font-size:60px;"">+</div>","null","html-keyboard-response","34","113653","0.0-6.0-0.14","JOSC","4","m","rechts","24","","fixation","","","",""
"830","img/0_330.png","70","image-keyboard-response","35","114484","0.0-6.0-1.14","JOSC","4","m","rechts","24","","","self","f","0","true"
"null","<div style=""font-size:60px;"">+</div>","null","html-keyboard-response","36","114836","0.0-6.0-0.15","JOSC","4","m","rechts","24","","fixation","","","",""
"866","img/60_150.png","70","image-keyboard-response","37","115704","0.0-6.0-1.15","JOSC","4","m","rechts","24","","","self","f","60","true"
"null","<div style=""font-size:60px;"">+</div>","null","html-keyboard-response","38","116055","0.0-6.0-0.16","JOSC","4","m","rechts","24","","fixation","","","",""
"695","img/90_240.png","74","image-keyboard-response","39","116751","0.0-6.0-1.16","JOSC","4","m","rechts","24","","","self","j","90","true"
"null","<div style=""font-size:60px;"">+</div>","null","html-keyboard-response","40","117053","0.0-6.0-0.17","JOSC","4","m","rechts","24","","fixation","","","",""
"976","img/90_300.png","70","image-keyboard-response","41","118030","0.0-6.0-1.17","JOSC","4","m","rechts","24","","","self","f","90","true"
"null","<div style=""font-size:60px;"">+</div>","null","html-keyboard-response","42","118531","0.0-6.0-0.18","JOSC","4","m","rechts","24","","fixation","","","",""
"752","img/120_210.png","74","image-keyboard-response","43","119285","0.0-6.0-1.18","JOSC","4","m","rechts","24","","","self","j","120","true"
"null","<div style=""font-size:60px;"">+</div>","null","html-keyboard-response","44","119736","0.0-6.0-0.19","JOSC","4","m","rechts","24","","fixation","","","",""
"772","img/120_150.png","70","image-keyboard-response","45","120510","0.0-6.0-1.19","JOSC","4","m","rechts","24","","","self","f","120","true"
"null","<div style=""font-size:60px;"">+</div>","null","html-keyboard-response","46","120811","0.0-6.0-0.20","JOSC","4","m","rechts","24","","fixation","","","",""
"823","img/120_180.png","74","image-keyboard-response","47","121636","0.0-6.0-1.20","JOSC","4","m","rechts","24","","","self","j","120","true"
"null","<div style=""font-size:60px;"">+</div>","null","html-keyboard-response","48","121937","0.0-6.0-0.21","JOSC","4","m","rechts","24","","fixation","","","",""
"1151","img/150_300.png","74","image-keyboard-response","49","123090","0.0-6.0-1.21","JOSC","4","m","rechts","24","","","self","j","150","true"
"null","<div style=""font-size:60px;"">+</div>","null","html-keyboard-response","50","123391","0.0-6.0-0.22","JOSC","4","m","rechts","24","","fixation","","","",""
"1021","img/60_330.png","70","image-keyboard-response","51","124413","0.0-6.0-1.22","JOSC","4","m","rechts","24","","","self","f","60","true"
"null","<div style=""font-size:60px;"">+</div>","null","html-keyboard-response","52","124915","0.0-6.0-0.23","JOSC","4","m","rechts","24","","fixation","","","",""
"963","img/90_60.png","74","image-keyboard-response","53","125879","0.0-6.0-1.23","JOSC","4","m","rechts","24","","","self","j","90","true"
"null","<div style=""font-size:60px;"">+</div>","null","html-keyboard-response","54","126180","0.0-6.0-0.24","JOSC","4","m","rechts","24","","fixation","","","",""
"1453","img/90_210.png","74","image-keyboard-response","55","127634","0.0-6.0-1.24","JOSC","4","m","rechts","24","","","self","j","90","true"
"null","<div style=""font-size:60px;"">+</div>","null","html-keyboard-response","56","128086","0.0-6.0-0.25","JOSC","4","m","rechts","24","","fixation","","","",""
"867","img/30_300.png","70","image-keyboard-response","57","128954","0.0-6.0-1.25","JOSC","4","m","rechts","24","","","self","f","30","true"
"null","<div style=""font-size:60px;"">+</div>","null","html-keyboard-response","58","129356","0.0-6.0-0.26","JOSC","4","m","rechts","24","","fixation","","","",""
"758","img/90_330.png","70","image-keyboard-response","59","130115","0.0-6.0-1.26","JOSC","4","m","rechts","24","","","self","f","90","true"
"null","<div style=""font-size:60px;"">+</div>","null","html-keyboard-response","60","130567","0.0-6.0-0.27","JOSC","4","m","rechts","24","","fixation","","","",""
"776","img/150_240.png","74","image-keyboard-response","61","131344","0.0-6.0-1.27","JOSC","4","m","rechts","24","","","self","j","150","true"
"null","<div style=""font-size:60px;"">+</div>","null","html-keyboard-response","62","131846","0.0-6.0-0.28","JOSC","4","m","rechts","24","","fixation","","","",""
"846","img/0_60.png","74","image-keyboard-response","63","132693","0.0-6.0-1.28","JOSC","4","m","rechts","24","","","self","j","0","true"
"null","<div style=""font-size:60px;"">+</div>","null","html-keyboard-response","64","132995","0.0-6.0-0.29","JOSC","4","m","rechts","24","","fixation","","","",""
"844","img/120_30.png","74","image-keyboard-response","65","133841","0.0-6.0-1.29","JOSC","4","m","rechts","24","","","self","j","120","true"
"null","<div style=""font-size:60px;"">+</div>","null","html-keyboard-response","66","134242","0.0-6.0-0.30","JOSC","4","m","rechts","24","","fixation","","","",""
"912","img/120_90.png","70","image-keyboard-response","67","135155","0.0-6.0-1.30","JOSC","4","m","rechts","24","","","self","f","120","true"
"null","<div style=""font-size:60px;"">+</div>","null","html-keyboard-response","68","135456","0.0-6.0-0.31","JOSC","4","m","rechts","24","","fixation","","","",""
"756","img/30_270.png","70","image-keyboard-response","69","136213","0.0-6.0-1.31","JOSC","4","m","rechts","24","","","self","f","30","true"
"null","<div style=""font-size:60px;"">+</div>","null","html-keyboard-response","70","136515","0.0-6.0-0.32","JOSC","4","m","rechts","24","","fixation","","","",""
"768","img/150_180.png","74","image-keyboard-response","71","137284","0.0-6.0-1.32","JOSC","4","m","rechts","24","","","self","j","150","true"
"null","<div style=""font-size:60px;"">+</div>","null","html-keyboard-response","72","137786","0.0-6.0-0.33","JOSC","4","m","rechts","24","","fixation","","","",""
"768","img/90_150.png","70","image-keyboard-response","73","138554","0.0-6.0-1.33","JOSC","4","m","rechts","24","","","self","f","90","true"
"null","<div style=""font-size:60px;"">+</div>","null","html-keyboard-response","74","138956","0.0-6.0-0.34","JOSC","4","m","rechts","24","","fixation","","","",""
"810","img/150_90.png","70","image-keyboard-response","75","139768","0.0-6.0-1.34","JOSC","4","m","rechts","24","","","self","f","150","true"
"null","<div style=""font-size:60px;"">+</div>","null","html-keyboard-response","76","140069","0.0-6.0-0.35","JOSC","4","m","rechts","24","","fixation","","","",""
"880","img/L150_180.png","70","image-keyboard-response","77","140950","0.0-6.0-1.35","JOSC","4","m","rechts","24","","","self","f","150","true"
"null","<div style=""font-size:60px;"">+</div>","null","html-keyboard-response","78","141351","0.0-6.0-0.36","JOSC","4","m","rechts","24","","fixation","","","",""
"831","img/90_120.png","70","image-keyboard-response","79","142182","0.0-6.0-1.36","JOSC","4","m","rechts","24","","","self","f","90","true"
"null","<div style=""font-size:60px;"">+</div>","null","html-keyboard-response","80","142683","0.0-6.0-0.37","JOSC","4","m","rechts","24","","fixation","","","",""
"1260","img/120_330.png","74","image-keyboard-response","81","143944","0.0-6.0-1.37","JOSC","4","m","rechts","24","","","self","f","120","false"
"null","<div style=""font-size:60px;"">+</div>","null","html-keyboard-response","82","144396","0.0-6.0-0.38","JOSC","4","m","rechts","24","","fixation","","","",""
"802","img/L60_180.png","70","image-keyboard-response","83","145199","0.0-6.0-1.38","JOSC","4","m","rechts","24","","","self","f","60","true"
"null","<div style=""font-size:60px;"">+</div>","null","html-keyboard-response","84","145700","0.0-6.0-0.39","JOSC","4","m","rechts","24","","fixation","","","",""
"678","img/90_180.png","74","image-keyboard-response","85","146379","0.0-6.0-1.39","JOSC","4","m","rechts","24","","","self","j","90","true"
"null","<div style=""font-size:60px;"">+</div>","null","html-keyboard-response","86","146781","0.0-6.0-0.40","JOSC","4","m","rechts","24","","fixation","","","",""
"888","img/30_180.png","74","image-keyboard-response","87","147670","0.0-6.0-1.40","JOSC","4","m","rechts","24","","","self","j","30","true"
"null","<div style=""font-size:60px;"">+</div>","null","html-keyboard-response","88","148022","0.0-6.0-0.41","JOSC","4","m","rechts","24","","fixation","","","",""
"1076","img/60_90.png","74","image-keyboard-response","89","149099","0.0-6.0-1.41","JOSC","4","m","rechts","24","","","self","j","60","true"
"null","<div style=""font-size:60px;"">+</div>","null","html-keyboard-response","90","149500","0.0-6.0-0.42","JOSC","4","m","rechts","24","","fixation","","","",""
"627","img/L30_180.png","70","image-keyboard-response","91","150128","0.0-6.0-1.42","JOSC","4","m","rechts","24","","","self","f","30","true"
"null","<div style=""font-size:60px;"">+</div>","null","html-keyboard-response","92","150580","0.0-6.0-0.43","JOSC","4","m","rechts","24","","fixation","","","",""
"880","img/0_90.png","74","image-keyboard-response","93","151461","0.0-6.0-1.43","JOSC","4","m","rechts","24","","","self","j","0","true"
"null","<div style=""font-size:60px;"">+</div>","null","html-keyboard-response","94","151762","0.0-6.0-0.44","JOSC","4","m","rechts","24","","fixation","","","",""
"925","img/L120_180.png","70","image-keyboard-response","95","152688","0.0-6.0-1.44","JOSC","4","m","rechts","24","","","self","f","120","true"
"null","<div style=""font-size:60px;"">+</div>","null","html-keyboard-response","96","153090","0.0-6.0-0.45","JOSC","4","m","rechts","24","","fixation","","","",""
"775","img/0_30.png","74","image-keyboard-response","97","153865","0.0-6.0-1.45","JOSC","4","m","rechts","24","","","self","j","0","true"
"null","<div style=""font-size:60px;"">+</div>","null","html-keyboard-response","98","154217","0.0-6.0-0.46","JOSC","4","m","rechts","24","","fixation","","","",""
"671","img/0_300.png","70","image-keyboard-response","99","154889","0.0-6.0-1.46","JOSC","4","m","rechts","24","","","self","f","0","true"
"null","<div style=""font-size:60px;"">+</div>","null","html-keyboard-response","100","155390","0.0-6.0-0.47","JOSC","4","m","rechts","24","","fixation","","","",""
"865","img/0_150.png","74","image-keyboard-response","101","156256","0.0-6.0-1.47","JOSC","4","m","rechts","24","","","self","j","0","true"
"null","<div style=""font-size:60px;"">+</div>","null","html-keyboard-response","102","156758","0.0-6.0-0.48","JOSC","4","m","rechts","24","","fixation","","","",""
"1606","img/90_30.png","74","image-keyboard-response","103","158364","0.0-6.0-1.48","JOSC","4","m","rechts","24","","","self","j","90","true"
"null","<div style=""font-size:60px;"">+</div>","null","html-keyboard-response","104","158766","0.0-6.0-0.49","JOSC","4","m","rechts","24","","fixation","","","",""
"883","img/30_90.png","74","image-keyboard-response","105","159650","0.0-6.0-1.49","JOSC","4","m","rechts","24","","","self","j","30","true"
"null","<div style=""font-size:60px;"">+</div>","null","html-keyboard-response","106","160101","0.0-6.0-0.50","JOSC","4","m","rechts","24","","fixation","","","",""
"762","img/150_60.png","70","image-keyboard-response","107","160864","0.0-6.0-1.50","JOSC","4","m","rechts","24","","","self","f","150","true"
"null","<div style=""font-size:60px;"">+</div>","null","html-keyboard-response","108","161165","0.0-6.0-0.51","JOSC","4","m","rechts","24","","fixation","","","",""
"1075","img/60_210.png","74","image-keyboard-response","109","162242","0.0-6.0-1.51","JOSC","4","m","rechts","24","","","self","j","60","true"
"null","<div style=""font-size:60px;"">+</div>","null","html-keyboard-response","110","162543","0.0-6.0-0.52","JOSC","4","m","rechts","24","","fixation","","","",""
"1334","img/150_270.png","74","image-keyboard-response","111","163878","0.0-6.0-1.52","JOSC","4","m","rechts","24","","","self","j","150","true"
"null","<div style=""font-size:60px;"">+</div>","null","html-keyboard-response","112","164329","0.0-6.0-0.53","JOSC","4","m","rechts","24","","fixation","","","",""
"1199","img/90_300.png","70","image-keyboard-response","113","165530","0.0-6.0-1.53","JOSC","4","m","rechts","24","","","self","f","90","true"
"null","<div style=""font-size:60px;"">+</div>","null","html-keyboard-response","114","165830","0.0-6.0-0.54","JOSC","4","m","rechts","24","","fixation","","","",""
"1074","img/120_270.png","74","image-keyboard-response","115","166906","0.0-6.0-1.54","JOSC","4","m","rechts","24","","","self","j","120","true"
"null","<div style=""font-size:60px;"">+</div>","null","html-keyboard-response","116","167257","0.0-6.0-0.55","JOSC","4","m","rechts","24","","fixation","","","",""
"955","img/0_210.png","70","image-keyboard-response","117","168214","0.0-6.0-1.55","JOSC","4","m","rechts","24","","","self","f","0","true"
"null","<div style=""font-size:60px;"">+</div>","null","html-keyboard-response","118","168715","0.0-6.0-0.56","JOSC","4","m","rechts","24","","fixation","","","",""
"807","img/60_180.png","74","image-keyboard-response","119","169524","0.0-6.0-1.56","JOSC","4","m","rechts","24","","","self","j","60","true"
"null","<div style=""font-size:60px;"">+</div>","null","html-keyboard-response","120","169975","0.0-6.0-0.57","JOSC","4","m","rechts","24","","fixation","","","",""
"981","img/60_210.png","74","image-keyboard-response","121","170957","0.0-6.0-1.57","JOSC","4","m","rechts","24","","","self","j","60","true"
"null","<div style=""font-size:60px;"">+</div>","null","html-keyboard-response","122","171309","0.0-6.0-0.58","JOSC","4","m","rechts","24","","fixation","","","",""
"780","img/90_30.png","74","image-keyboard-response","123","172091","0.0-6.0-1.58","JOSC","4","m","rechts","24","","","self","j","90","true"
"null","<div style=""font-size:60px;"">+</div>","null","html-keyboard-response","124","172592","0.0-6.0-0.59","JOSC","4","m","rechts","24","","fixation","","","",""
"726","img/120_90.png","70","image-keyboard-response","125","173319","0.0-6.0-1.59","JOSC","4","m","rechts","24","","","self","f","120","true"
"null","<div style=""font-size:60px;"">+</div>","null","html-keyboard-response","126","173671","0.0-6.0-0.60","JOSC","4","m","rechts","24","","fixation","","","",""
"861","img/L120_180.png","70","image-keyboard-response","127","174533","0.0-6.0-1.60","JOSC","4","m","rechts","24","","","self","f","120","true"
"null","<div style=""font-size:60px;"">+</div>","null","html-keyboard-response","128","174934","0.0-6.0-0.61","JOSC","4","m","rechts","24","","fixation","","","",""
"925","img/150_300.png","74","image-keyboard-response","129","175860","0.0-6.0-1.61","JOSC","4","m","rechts","24","","","self","j","150","true"
"null","<div style=""font-size:60px;"">+</div>","null","html-keyboard-response","130","176212","0.0-6.0-0.62","JOSC","4","m","rechts","24","","fixation","","","",""
"876","img/0_240.png","70","image-keyboard-response","131","177089","0.0-6.0-1.62","JOSC","4","m","rechts","24","","","self","f","0","true"
"null","<div style=""font-size:60px;"">+</div>","null","html-keyboard-response","132","177491","0.0-6.0-0.63","JOSC","4","m","rechts","24","","fixation","","","",""
"886","img/90_60.png","74","image-keyboard-response","133","178378","0.0-6.0-1.63","JOSC","4","m","rechts","24","","","self","j","90","true"
"null","<div style=""font-size:60px;"">+</div>","null","html-keyboard-response","134","178780","0.0-6.0-0.64","JOSC","4","m","rechts","24","","fixation","","","",""
"893","img/90_180.png","74","image-keyboard-response","135","179673","0.0-6.0-1.64","JOSC","4","m","rechts","24","","","self","j","90","true"
"null","<div style=""font-size:60px;"">+</div>","null","html-keyboard-response","136","180175","0.0-6.0-0.65","JOSC","4","m","rechts","24","","fixation","","","",""
"763","img/150_60.png","70","image-keyboard-response","137","180939","0.0-6.0-1.65","JOSC","4","m","rechts","24","","","self","f","150","true"
"null","<div style=""font-size:60px;"">+</div>","null","html-keyboard-response","138","181241","0.0-6.0-0.66","JOSC","4","m","rechts","24","","fixation","","","",""
"830","img/60_30.png","74","image-keyboard-response","139","182072","0.0-6.0-1.66","JOSC","4","m","rechts","24","","","self","j","60","true"
"null","<div style=""font-size:60px;"">+</div>","null","html-keyboard-response","140","182524","0.0-6.0-0.67","JOSC","4","m","rechts","24","","fixation","","","",""
"860","img/120_150.png","70","image-keyboard-response","141","183384","0.0-6.0-1.67","JOSC","4","m","rechts","24","","","self","f","120","true"
"null","<div style=""font-size:60px;"">+</div>","null","html-keyboard-response","142","183886","0.0-6.0-0.68","JOSC","4","m","rechts","24","","fixation","","","",""
"888","img/60_150.png","70","image-keyboard-response","143","184774","0.0-6.0-1.68","JOSC","4","m","rechts","24","","","self","f","60","true"
"null","<div style=""font-size:60px;"">+</div>","null","html-keyboard-response","144","185276","0.0-6.0-0.69","JOSC","4","m","rechts","24","","fixation","","","",""
"711","img/0_60.png","74","image-keyboard-response","145","185988","0.0-6.0-1.69","JOSC","4","m","rechts","24","","","self","j","0","true"
"null","<div style=""font-size:60px;"">+</div>","null","html-keyboard-response","146","186289","0.0-6.0-0.70","JOSC","4","m","rechts","24","","fixation","","","",""
"680","img/L90_180.png","70","image-keyboard-response","147","186970","0.0-6.0-1.70","JOSC","4","m","rechts","24","","","self","f","90","true"
"null","<div style=""font-size:60px;"">+</div>","null","html-keyboard-response","148","187272","0.0-6.0-0.71","JOSC","4","m","rechts","24","","fixation","","","",""
"725","img/30_180.png","74","image-keyboard-response","149","187997","0.0-6.0-1.71","JOSC","4","m","rechts","24","","","self","j","30","true"
"null","<div style=""font-size:60px;"">+</div>","null","html-keyboard-response","150","188449","0.0-6.0-0.72","JOSC","4","m","rechts","24","","fixation","","","",""
"681","img/90_150.png","70","image-keyboard-response","151","189131","0.0-6.0-1.72","JOSC","4","m","rechts","24","","","self","f","90","true"
"null","<div style=""font-size:60px;"">+</div>","null","html-keyboard-response","152","189432","0.0-6.0-0.73","JOSC","4","m","rechts","24","","fixation","","","",""
"697","img/L150_180.png","70","image-keyboard-response","153","190130","0.0-6.0-1.73","JOSC","4","m","rechts","24","","","self","f","150","true"
"null","<div style=""font-size:60px;"">+</div>","null","html-keyboard-response","154","190582","0.0-6.0-0.74","JOSC","4","m","rechts","24","","fixation","","","",""
"981","img/30_300.png","70","image-keyboard-response","155","191564","0.0-6.0-1.74","JOSC","4","m","rechts","24","","","self","f","30","true"
"null","<div style=""font-size:60px;"">+</div>","null","html-keyboard-response","156","191916","0.0-6.0-0.75","JOSC","4","m","rechts","24","","fixation","","","",""
"630","img/0_270.png","70","image-keyboard-response","157","192547","0.0-6.0-1.75","JOSC","4","m","rechts","24","","","self","f","0","true"
"null","<div style=""font-size:60px;"">+</div>","null","html-keyboard-response","158","192849","0.0-6.0-0.76","JOSC","4","m","rechts","24","","fixation","","","",""
"873","img/150_120.png","70","image-keyboard-response","159","193723","0.0-6.0-1.76","JOSC","4","m","rechts","24","","","self","f","150","true"
"null","<div style=""font-size:60px;"">+</div>","null","html-keyboard-response","160","194024","0.0-6.0-0.77","JOSC","4","m","rechts","24","","fixation","","","",""
"1143","img/120_330.png","70","image-keyboard-response","161","195168","0.0-6.0-1.77","JOSC","4","m","rechts","24","","","self","f","120","true"
"null","<div style=""font-size:60px;"">+</div>","null","html-keyboard-response","162","195619","0.0-6.0-0.78","JOSC","4","m","rechts","24","","fixation","","","",""
"826","img/0_30.png","74","image-keyboard-response","163","196445","0.0-6.0-1.78","JOSC","4","m","rechts","24","","","self","j","0","true"
"null","<div style=""font-size:60px;"">+</div>","null","html-keyboard-response","164","196797","0.0-6.0-0.79","JOSC","4","m","rechts","24","","fixation","","","",""
"1084","img/90_120.png","70","image-keyboard-response","165","197881","0.0-6.0-1.79","JOSC","4","m","rechts","24","","","self","f","90","true"
"null","<div style=""font-size:60px;"">+</div>","null","html-keyboard-response","166","198333","0.0-6.0-0.80","JOSC","4","m","rechts","24","","fixation","","","",""
"1077","img/60_270.png","70","image-keyboard-response","167","199411","0.0-6.0-1.80","JOSC","4","m","rechts","24","","","self","f","60","true"
"null","<div style=""font-size:60px;"">+</div>","null","html-keyboard-response","168","199712","0.0-6.0-0.81","JOSC","4","m","rechts","24","","fixation","","","",""
"730","img/30_270.png","70","image-keyboard-response","169","200443","0.0-6.0-1.81","JOSC","4","m","rechts","24","","","self","f","30","true"
"null","<div style=""font-size:60px;"">+</div>","null","html-keyboard-response","170","200945","0.0-6.0-0.82","JOSC","4","m","rechts","24","","fixation","","","",""
"783","img/120_180.png","74","image-keyboard-response","171","201728","0.0-6.0-1.82","JOSC","4","m","rechts","24","","","self","j","120","true"
"null","<div style=""font-size:60px;"">+</div>","null","html-keyboard-response","172","202179","0.0-6.0-0.83","JOSC","4","m","rechts","24","","fixation","","","",""
"720","img/150_240.png","74","image-keyboard-response","173","202900","0.0-6.0-1.83","JOSC","4","m","rechts","24","","","self","j","150","true"
"null","<div style=""font-size:60px;"">+</div>","null","html-keyboard-response","174","203251","0.0-6.0-0.84","JOSC","4","m","rechts","24","","fixation","","","",""
"641","img/120_210.png","74","image-keyboard-response","175","203893","0.0-6.0-1.84","JOSC","4","m","rechts","24","","","self","j","120","true"
"null","<div style=""font-size:60px;"">+</div>","null","html-keyboard-response","176","204294","0.0-6.0-0.85","JOSC","4","m","rechts","24","","fixation","","","",""
"789","img/60_330.png","70","image-keyboard-response","177","205084","0.0-6.0-1.85","JOSC","4","m","rechts","24","","","self","f","60","true"
"null","<div style=""font-size:60px;"">+</div>","null","html-keyboard-response","178","205435","0.0-6.0-0.86","JOSC","4","m","rechts","24","","fixation","","","",""
"649","img/90_240.png","74","image-keyboard-response","179","206086","0.0-6.0-1.86","JOSC","4","m","rechts","24","","","self","j","90","true"
"null","<div style=""font-size:60px;"">+</div>","null","html-keyboard-response","180","206537","0.0-6.0-0.87","JOSC","4","m","rechts","24","","fixation","","","",""
"833","img/60_90.png","74","image-keyboard-response","181","207370","0.0-6.0-1.87","JOSC","4","m","rechts","24","","","self","j","60","true"
"null","<div style=""font-size:60px;"">+</div>","null","html-keyboard-response","182","207771","0.0-6.0-0.88","JOSC","4","m","rechts","24","","fixation","","","",""
"667","img/0_330.png","70","image-keyboard-response","183","208438","0.0-6.0-1.88","JOSC","4","m","rechts","24","","","self","f","0","true"
"null","<div style=""font-size:60px;"">+</div>","null","html-keyboard-response","184","208739","0.0-6.0-0.89","JOSC","4","m","rechts","24","","fixation","","","",""
"807","img/150_90.png","70","image-keyboard-response","185","209546","0.0-6.0-1.89","JOSC","4","m","rechts","24","","","self","f","150","true"
"null","<div style=""font-size:60px;"">+</div>","null","html-keyboard-response","186","209998","0.0-6.0-0.90","JOSC","4","m","rechts","24","","fixation","","","",""
"870","img/L30_180.png","70","image-keyboard-response","187","210869","0.0-6.0-1.90","JOSC","4","m","rechts","24","","","self","f","30","true"
"null","<div style=""font-size:60px;"">+</div>","null","html-keyboard-response","188","211170","0.0-6.0-0.91","JOSC","4","m","rechts","24","","fixation","","","",""
"701","img/0_300.png","70","image-keyboard-response","189","211872","0.0-6.0-1.91","JOSC","4","m","rechts","24","","","self","f","0","true"
"null","<div style=""font-size:60px;"">+</div>","null","html-keyboard-response","190","212223","0.0-6.0-0.92","JOSC","4","m","rechts","24","","fixation","","","",""
"961","img/30_90.png","74","image-keyboard-response","191","213185","0.0-6.0-1.92","JOSC","4","m","rechts","24","","","self","j","30","true"
"null","<div style=""font-size:60px;"">+</div>","null","html-keyboard-response","192","213586","0.0-6.0-0.93","JOSC","4","m","rechts","24","","fixation","","","",""
"1070","img/30_120.png","74","image-keyboard-response","193","214656","0.0-6.0-1.93","JOSC","4","m","rechts","24","","","self","j","30","true"
"null","<div style=""font-size:60px;"">+</div>","null","html-keyboard-response","194","215107","0.0-6.0-0.94","JOSC","4","m","rechts","24","","fixation","","","",""
"771","img/30_60.png","74","image-keyboard-response","195","215880","0.0-6.0-1.94","JOSC","4","m","rechts","24","","","self","j","30","true"
"null","<div style=""font-size:60px;"">+</div>","null","html-keyboard-response","196","216381","0.0-6.0-0.95","JOSC","4","m","rechts","24","","fixation","","","",""
"650","img/0_150.png","74","image-keyboard-response","197","217033","0.0-6.0-1.95","JOSC","4","m","rechts","24","","","self","j","0","true"
"null","<div style=""font-size:60px;"">+</div>","null","html-keyboard-response","198","217334","0.0-6.0-0.96","JOSC","4","m","rechts","24","","fixation","","","",""
"815","img/30_240.png","70","image-keyboard-response","199","218150","0.0-6.0-1.96","JOSC","4","m","rechts","24","","","self","f","30","true"
"null","<div style=""font-size:60px;"">+</div>","null","html-keyboard-response","200","218602","0.0-6.0-0.97","JOSC","4","m","rechts","24","","fixation","","","",""
"1612","img/L60_180.png","70","image-keyboard-response","201","220216","0.0-6.0-1.97","JOSC","4","m","rechts","24","","","self","f","60","true"
"null","<div style=""font-size:60px;"">+</div>","null","html-keyboard-response","202","220667","0.0-6.0-0.98","JOSC","4","m","rechts","24","","fixation","","","",""
"1196","img/120_30.png","74","image-keyboard-response","203","221863","0.0-6.0-1.98","JOSC","4","m","rechts","24","","","self","j","120","true"
"null","<div style=""font-size:60px;"">+</div>","null","html-keyboard-response","204","222265","0.0-6.0-0.99","JOSC","4","m","rechts","24","","fixation","","","",""
"1443","img/90_330.png","70","image-keyboard-response","205","223710","0.0-6.0-1.99","JOSC","4","m","rechts","24","","","self","f","90","true"
"null","<div style=""font-size:60px;"">+</div>","null","html-keyboard-response","206","224211","0.0-6.0-0.100","JOSC","4","m","rechts","24","","fixation","","","",""
"743","img/90_210.png","74","image-keyboard-response","207","224956","0.0-6.0-1.100","JOSC","4","m","rechts","24","","","self","j","90","true"
"null","<div style=""font-size:60px;"">+</div>","null","html-keyboard-response","208","225257","0.0-6.0-0.101","JOSC","4","m","rechts","24","","fixation","","","",""
"972","img/150_180.png","74","image-keyboard-response","209","226231","0.0-6.0-1.101","JOSC","4","m","rechts","24","","","self","j","150","true"
"null","<div style=""font-size:60px;"">+</div>","null","html-keyboard-response","210","226732","0.0-6.0-0.102","JOSC","4","m","rechts","24","","fixation","","","",""
"748","img/0_120.png","74","image-keyboard-response","211","227482","0.0-6.0-1.102","JOSC","4","m","rechts","24","","","self","j","0","true"
"null","<div style=""font-size:60px;"">+</div>","null","html-keyboard-response","212","227783","0.0-6.0-0.103","JOSC","4","m","rechts","24","","fixation","","","",""
"596","img/0_90.png","74","image-keyboard-response","213","228379","0.0-6.0-1.103","JOSC","4","m","rechts","24","","","self","j","0","true"
"null","<div style=""font-size:60px;"">+</div>","null","html-keyboard-response","214","228780","0.0-6.0-0.104","JOSC","4","m","rechts","24","","fixation","","","",""
"856","img/120_90.png","70","image-keyboard-response","215","229637","0.0-6.0-1.104","JOSC","4","m","rechts","24","","","self","f","120","true"
"null","<div style=""font-size:60px;"">+</div>","null","html-keyboard-response","216","229939","0.0-6.0-0.105","JOSC","4","m","rechts","24","","fixation","","","",""
"703","img/150_240.png","74","image-keyboard-response","217","230642","0.0-6.0-1.105","JOSC","4","m","rechts","24","","","self","j","150","true"
"null","<div style=""font-size:60px;"">+</div>","null","html-keyboard-response","218","230994","0.0-6.0-0.106","JOSC","4","m","rechts","24","","fixation","","","",""
"757","img/30_120.png","74","image-keyboard-response","219","231751","0.0-6.0-1.106","JOSC","4","m","rechts","24","","","self","j","30","true"
"null","<div style=""font-size:60px;"">+</div>","null","html-keyboard-response","220","232052","0.0-6.0-0.107","JOSC","4","m","rechts","24","","fixation","","","",""
"809","img/30_300.png","70","image-keyboard-response","221","232862","0.0-6.0-1.107","JOSC","4","m","rechts","24","","","self","f","30","true"
"null","<div style=""font-size:60px;"">+</div>","null","html-keyboard-response","222","233163","0.0-6.0-0.108","JOSC","4","m","rechts","24","","fixation","","","",""
"882","img/60_30.png","74","image-keyboard-response","223","234046","0.0-6.0-1.108","JOSC","4","m","rechts","24","","","self","j","60","true"
"null","<div style=""font-size:60px;"">+</div>","null","html-keyboard-response","224","234548","0.0-6.0-0.109","JOSC","4","m","rechts","24","","fixation","","","",""
"742","img/L30_180.png","70","image-keyboard-response","225","235290","0.0-6.0-1.109","JOSC","4","m","rechts","24","","","self","f","30","true"
"null","<div style=""font-size:60px;"">+</div>","null","html-keyboard-response","226","235692","0.0-6.0-0.110","JOSC","4","m","rechts","24","","fixation","","","",""
"630","img/30_60.png","74","image-keyboard-response","227","236322","0.0-6.0-1.110","JOSC","4","m","rechts","24","","","self","j","30","true"
"null","<div style=""font-size:60px;"">+</div>","null","html-keyboard-response","228","236824","0.0-6.0-0.111","JOSC","4","m","rechts","24","","fixation","","","",""
"799","img/60_330.png","70","image-keyboard-response","229","237623","0.0-6.0-1.111","JOSC","4","m","rechts","24","","","self","f","60","true"
"null","<div style=""font-size:60px;"">+</div>","null","html-keyboard-response","230","237975","0.0-6.0-0.112","JOSC","4","m","rechts","24","","fixation","","","",""
"785","img/150_270.png","74","image-keyboard-response","231","238761","0.0-6.0-1.112","JOSC","4","m","rechts","24","","","self","j","150","true"
"null","<div style=""font-size:60px;"">+</div>","null","html-keyboard-response","232","239163","0.0-6.0-0.113","JOSC","4","m","rechts","24","","fixation","","","",""
"831","img/60_180.png","74","image-keyboard-response","233","239994","0.0-6.0-1.113","JOSC","4","m","rechts","24","","","self","j","60","true"
"null","<div style=""font-size:60px;"">+</div>","null","html-keyboard-response","234","240395","0.0-6.0-0.114","JOSC","4","m","rechts","24","","fixation","","","",""
"688","img/L120_180.png","70","image-keyboard-response","235","241083","0.0-6.0-1.114","JOSC","4","m","rechts","24","","","self","f","120","true"
"null","<div style=""font-size:60px;"">+</div>","null","html-keyboard-response","236","241434","0.0-6.0-0.115","JOSC","4","m","rechts","24","","fixation","","","",""
"636","img/0_90.png","74","image-keyboard-response","237","242071","0.0-6.0-1.115","JOSC","4","m","rechts","24","","","self","j","0","true"
"null","<div style=""font-size:60px;"">+</div>","null","html-keyboard-response","238","242373","0.0-6.0-0.116","JOSC","4","m","rechts","24","","fixation","","","",""
"747","img/0_270.png","70","image-keyboard-response","239","243120","0.0-6.0-1.116","JOSC","4","m","rechts","24","","","self","f","0","true"
"null","<div style=""font-size:60px;"">+</div>","null","html-keyboard-response","240","243472","0.0-6.0-0.117","JOSC","4","m","rechts","24","","fixation","","","",""
"818","img/L60_180.png","70","image-keyboard-response","241","244290","0.0-6.0-1.117","JOSC","4","m","rechts","24","","","self","f","60","true"
"null","<div style=""font-size:60px;"">+</div>","null","html-keyboard-response","242","244642","0.0-6.0-0.118","JOSC","4","m","rechts","24","","fixation","","","",""
"805","img/120_30.png","74","image-keyboard-response","243","245447","0.0-6.0-1.118","JOSC","4","m","rechts","24","","","self","j","120","true"
"null","<div style=""font-size:60px;"">+</div>","null","html-keyboard-response","244","245949","0.0-6.0-0.119","JOSC","4","m","rechts","24","","fixation","","","",""
"629","img/0_60.png","74","image-keyboard-response","245","246578","0.0-6.0-1.119","JOSC","4","m","rechts","24","","","self","j","0","true"
"null","<div style=""font-size:60px;"">+</div>","null","html-keyboard-response","246","247030","0.0-6.0-0.120","JOSC","4","m","rechts","24","","fixation","","","",""
"681","img/L150_180.png","70","image-keyboard-response","247","247712","0.0-6.0-1.120","JOSC","4","m","rechts","24","","","self","f","150","true"
"null","<div style=""font-size:60px;"">+</div>","null","html-keyboard-response","248","248113","0.0-6.0-0.121","JOSC","4","m","rechts","24","","fixation","","","",""
"704","img/90_60.png","74","image-keyboard-response","249","248818","0.0-6.0-1.121","JOSC","4","m","rechts","24","","","self","j","90","true"
"null","<div style=""font-size:60px;"">+</div>","null","html-keyboard-response","250","249119","0.0-6.0-0.122","JOSC","4","m","rechts","24","","fixation","","","",""
"1118","img/60_90.png","74","image-keyboard-response","251","250238","0.0-6.0-1.122","JOSC","4","m","rechts","24","","","self","j","60","true"
"null","<div style=""font-size:60px;"">+</div>","null","html-keyboard-response","252","250590","0.0-6.0-0.123","JOSC","4","m","rechts","24","","fixation","","","",""
"769","img/0_30.png","74","image-keyboard-response","253","251360","0.0-6.0-1.123","JOSC","4","m","rechts","24","","","self","j","0","true"
"null","<div style=""font-size:60px;"">+</div>","null","html-keyboard-response","254","251862","0.0-6.0-0.124","JOSC","4","m","rechts","24","","fixation","","","",""
"1063","img/150_300.png","74","image-keyboard-response","255","252925","0.0-6.0-1.124","JOSC","4","m","rechts","24","","","self","j","150","true"
"null","<div style=""font-size:60px;"">+</div>","null","html-keyboard-response","256","253427","0.0-6.0-0.125","JOSC","4","m","rechts","24","","fixation","","","",""
"860","img/150_90.png","70","image-keyboard-response","257","254287","0.0-6.0-1.125","JOSC","4","m","rechts","24","","","self","f","150","true"
"null","<div style=""font-size:60px;"">+</div>","null","html-keyboard-response","258","254689","0.0-6.0-0.126","JOSC","4","m","rechts","24","","fixation","","","",""
"886","img/120_270.png","74","image-keyboard-response","259","255575","0.0-6.0-1.126","JOSC","4","m","rechts","24","","","self","j","120","true"
"null","<div style=""font-size:60px;"">+</div>","null","html-keyboard-response","260","256025","0.0-6.0-0.127","JOSC","4","m","rechts","24","","fixation","","","",""
"622","img/0_210.png","70","image-keyboard-response","261","256648","0.0-6.0-1.127","JOSC","4","m","rechts","24","","","self","f","0","true"
"null","<div style=""font-size:60px;"">+</div>","null","html-keyboard-response","262","257100","0.0-6.0-0.128","JOSC","4","m","rechts","24","","fixation","","","",""
"1127","img/150_120.png","70","image-keyboard-response","263","258227","0.0-6.0-1.128","JOSC","4","m","rechts","24","","","self","f","150","true"
"null","<div style=""font-size:60px;"">+</div>","null","html-keyboard-response","264","258628","0.0-6.0-0.129","JOSC","4","m","rechts","24","","fixation","","","",""
"809","img/120_150.png","70","image-keyboard-response","265","259439","0.0-6.0-1.129","JOSC","4","m","rechts","24","","","self","f","120","true"
"null","<div style=""font-size:60px;"">+</div>","null","html-keyboard-response","266","259840","0.0-6.0-0.130","JOSC","4","m","rechts","24","","fixation","","","",""
"739","img/90_210.png","74","image-keyboard-response","267","260581","0.0-6.0-1.130","JOSC","4","m","rechts","24","","","self","j","90","true"
"null","<div style=""font-size:60px;"">+</div>","null","html-keyboard-response","268","260982","0.0-6.0-0.131","JOSC","4","m","rechts","24","","fixation","","","",""
"632","img/0_300.png","70","image-keyboard-response","269","261615","0.0-6.0-1.131","JOSC","4","m","rechts","24","","","self","f","0","true"
"null","<div style=""font-size:60px;"">+</div>","null","html-keyboard-response","270","261917","0.0-6.0-0.132","JOSC","4","m","rechts","24","","fixation","","","",""
"632","img/90_300.png","70","image-keyboard-response","271","262550","0.0-6.0-1.132","JOSC","4","m","rechts","24","","","self","f","90","true"
"null","<div style=""font-size:60px;"">+</div>","null","html-keyboard-response","272","262901","0.0-6.0-0.133","JOSC","4","m","rechts","24","","fixation","","","",""
"907","img/30_270.png","70","image-keyboard-response","273","263809","0.0-6.0-1.133","JOSC","4","m","rechts","24","","","self","f","30","true"
"null","<div style=""font-size:60px;"">+</div>","null","html-keyboard-response","274","264260","0.0-6.0-0.134","JOSC","4","m","rechts","24","","fixation","","","",""
"771","img/90_240.png","74","image-keyboard-response","275","265031","0.0-6.0-1.134","JOSC","4","m","rechts","24","","","self","j","90","true"
"null","<div style=""font-size:60px;"">+</div>","null","html-keyboard-response","276","265483","0.0-6.0-0.135","JOSC","4","m","rechts","24","","fixation","","","",""
"800","img/120_330.png","70","image-keyboard-response","277","266283","0.0-6.0-1.135","JOSC","4","m","rechts","24","","","self","f","120","true"
"null","<div style=""font-size:60px;"">+</div>","null","html-keyboard-response","278","266735","0.0-6.0-0.136","JOSC","4","m","rechts","24","","fixation","","","",""
"1979","img/90_120.png","70","image-keyboard-response","279","268716","0.0-6.0-1.136","JOSC","4","m","rechts","24","","","self","f","90","true"
"null","<div style=""font-size:60px;"">+</div>","null","html-keyboard-response","280","269217","0.0-6.0-0.137","JOSC","4","m","rechts","24","","fixation","","","",""
"773","img/90_150.png","70","image-keyboard-response","281","269991","0.0-6.0-1.137","JOSC","4","m","rechts","24","","","self","f","90","true"
"null","<div style=""font-size:60px;"">+</div>","null","html-keyboard-response","282","270393","0.0-6.0-0.138","JOSC","4","m","rechts","24","","fixation","","","",""
"717","img/60_150.png","70","image-keyboard-response","283","271111","0.0-6.0-1.138","JOSC","4","m","rechts","24","","","self","f","60","true"
"null","<div style=""font-size:60px;"">+</div>","null","html-keyboard-response","284","271613","0.0-6.0-0.139","JOSC","4","m","rechts","24","","fixation","","","",""
"1072","img/30_90.png","74","image-keyboard-response","285","272686","0.0-6.0-1.139","JOSC","4","m","rechts","24","","","self","j","30","true"
"null","<div style=""font-size:60px;"">+</div>","null","html-keyboard-response","286","273038","0.0-6.0-0.140","JOSC","4","m","rechts","24","","fixation","","","",""
"684","img/0_150.png","74","image-keyboard-response","287","273723","0.0-6.0-1.140","JOSC","4","m","rechts","24","","","self","j","0","true"
"null","<div style=""font-size:60px;"">+</div>","null","html-keyboard-response","288","274175","0.0-6.0-0.141","JOSC","4","m","rechts","24","","fixation","","","",""
"904","img/120_180.png","74","image-keyboard-response","289","275080","0.0-6.0-1.141","JOSC","4","m","rechts","24","","","self","j","120","true"
"null","<div style=""font-size:60px;"">+</div>","null","html-keyboard-response","290","275481","0.0-6.0-0.142","JOSC","4","m","rechts","24","","fixation","","","",""
"793","img/60_270.png","70","image-keyboard-response","291","276275","0.0-6.0-1.142","JOSC","4","m","rechts","24","","","self","f","60","true"
"null","<div style=""font-size:60px;"">+</div>","null","html-keyboard-response","292","276777","0.0-6.0-0.143","JOSC","4","m","rechts","24","","fixation","","","",""
"702","img/0_120.png","74","image-keyboard-response","293","277481","0.0-6.0-1.143","JOSC","4","m","rechts","24","","","self","j","0","true"
"null","<div style=""font-size:60px;"">+</div>","null","html-keyboard-response","294","277882","0.0-6.0-0.144","JOSC","4","m","rechts","24","","fixation","","","",""
"863","img/120_210.png","74","image-keyboard-response","295","278746","0.0-6.0-1.144","JOSC","4","m","rechts","24","","","self","j","120","true"
"null","<div style=""font-size:60px;"">+</div>","null","html-keyboard-response","296","279048","0.0-6.0-0.145","JOSC","4","m","rechts","24","","fixation","","","",""
"845","img/0_330.png","70","image-keyboard-response","297","279894","0.0-6.0-1.145","JOSC","4","m","rechts","24","","","self","f","0","true"
"null","<div style=""font-size:60px;"">+</div>","null","html-keyboard-response","298","280396","0.0-6.0-0.146","JOSC","4","m","rechts","24","","fixation","","","",""
"944","img/150_60.png","70","image-keyboard-response","299","281342","0.0-6.0-1.146","JOSC","4","m","rechts","24","","","self","f","150","true"
"null","<div style=""font-size:60px;"">+</div>","null","html-keyboard-response","300","281643","0.0-6.0-0.147","JOSC","4","m","rechts","24","","fixation","","","",""
"915","img/30_180.png","74","image-keyboard-response","301","282559","0.0-6.0-1.147","JOSC","4","m","rechts","24","","","self","j","30","true"
"null","<div style=""font-size:60px;"">+</div>","null","html-keyboard-response","302","283061","0.0-6.0-0.148","JOSC","4","m","rechts","24","","fixation","","","",""
"836","img/90_30.png","74","image-keyboard-response","303","283898","0.0-6.0-1.148","JOSC","4","m","rechts","24","","","self","j","90","true"
"null","<div style=""font-size:60px;"">+</div>","null","html-keyboard-response","304","284200","0.0-6.0-0.149","JOSC","4","m","rechts","24","","fixation","","","",""
"590","img/0_240.png","70","image-keyboard-response","305","284790","0.0-6.0-1.149","JOSC","4","m","rechts","24","","","self","f","0","true"
"null","<div style=""font-size:60px;"">+</div>","null","html-keyboard-response","306","285192","0.0-6.0-0.150","JOSC","4","m","rechts","24","","fixation","","","",""
"725","img/60_210.png","74","image-keyboard-response","307","285917","0.0-6.0-1.150","JOSC","4","m","rechts","24","","","self","j","60","true"
"null","<div style=""font-size:60px;"">+</div>","null","html-keyboard-response","308","286369","0.0-6.0-0.151","JOSC","4","m","rechts","24","","fixation","","","",""
"703","img/90_330.png","70","image-keyboard-response","309","287072","0.0-6.0-1.151","JOSC","4","m","rechts","24","","","self","f","90","true"
"null","<div style=""font-size:60px;"">+</div>","null","html-keyboard-response","310","287474","0.0-6.0-0.152","JOSC","4","m","rechts","24","","fixation","","","",""
"659","img/150_180.png","74","image-keyboard-response","311","288133","0.0-6.0-1.152","JOSC","4","m","rechts","24","","","self","j","150","true"
"null","<div style=""font-size:60px;"">+</div>","null","html-keyboard-response","312","288535","0.0-6.0-0.153","JOSC","4","m","rechts","24","","fixation","","","",""
"756","img/90_180.png","74","image-keyboard-response","313","289292","0.0-6.0-1.153","JOSC","4","m","rechts","24","","","self","j","90","true"
"null","<div style=""font-size:60px;"">+</div>","null","html-keyboard-response","314","289694","0.0-6.0-0.154","JOSC","4","m","rechts","24","","fixation","","","",""
"701","img/30_240.png","70","image-keyboard-response","315","290395","0.0-6.0-1.154","JOSC","4","m","rechts","24","","","self","f","30","true"
"null","<div style=""font-size:60px;"">+</div>","null","html-keyboard-response","316","290896","0.0-6.0-0.155","JOSC","4","m","rechts","24","","fixation","","","",""
"729","img/L90_180.png","70","image-keyboard-response","317","291625","0.0-6.0-1.155","JOSC","4","m","rechts","24","","","self","f","90","true"
"null","<div style=""font-size:60px;"">+</div>","null","html-keyboard-response","318","292077","0.0-6.0-0.156","JOSC","4","m","rechts","24","","fixation","","","",""
"674","img/90_30.png","74","image-keyboard-response","319","292752","0.0-6.0-1.156","JOSC","4","m","rechts","24","","","self","j","90","true"
"null","<div style=""font-size:60px;"">+</div>","null","html-keyboard-response","320","293253","0.0-6.0-0.157","JOSC","4","m","rechts","24","","fixation","","","",""
"665","img/0_300.png","70","image-keyboard-response","321","293919","0.0-6.0-1.157","JOSC","4","m","rechts","24","","","self","f","0","true"
"null","<div style=""font-size:60px;"">+</div>","null","html-keyboard-response","322","294220","0.0-6.0-0.158","JOSC","4","m","rechts","24","","fixation","","","",""
"823","img/30_270.png","70","image-keyboard-response","323","295044","0.0-6.0-1.158","JOSC","4","m","rechts","24","","","self","f","30","true"
"null","<div style=""font-size:60px;"">+</div>","null","html-keyboard-response","324","295445","0.0-6.0-0.159","JOSC","4","m","rechts","24","","fixation","","","",""
"703","img/0_210.png","70","image-keyboard-response","325","296149","0.0-6.0-1.159","JOSC","4","m","rechts","24","","","self","f","0","true"
"null","<div style=""font-size:60px;"">+</div>","null","html-keyboard-response","326","296500","0.0-6.0-0.160","JOSC","4","m","rechts","24","","fixation","","","",""
"728","img/60_210.png","74","image-keyboard-response","327","297229","0.0-6.0-1.160","JOSC","4","m","rechts","24","","","self","j","60","true"
"null","<div style=""font-size:60px;"">+</div>","null","html-keyboard-response","328","297530","0.0-6.0-0.161","JOSC","4","m","rechts","24","","fixation","","","",""
"812","img/60_150.png","70","image-keyboard-response","329","298343","0.0-6.0-1.161","JOSC","4","m","rechts","24","","","self","f","60","true"
"null","<div style=""font-size:60px;"">+</div>","null","html-keyboard-response","330","298745","0.0-6.0-0.162","JOSC","4","m","rechts","24","","fixation","","","",""
"728","img/60_30.png","74","image-keyboard-response","331","299473","0.0-6.0-1.162","JOSC","4","m","rechts","24","","","self","j","60","true"
"null","<div style=""font-size:60px;"">+</div>","null","html-keyboard-response","332","299824","0.0-6.0-0.163","JOSC","4","m","rechts","24","","fixation","","","",""
"823","img/60_330.png","70","image-keyboard-response","333","300648","0.0-6.0-1.163","JOSC","4","m","rechts","24","","","self","f","60","true"
"null","<div style=""font-size:60px;"">+</div>","null","html-keyboard-response","334","300999","0.0-6.0-0.164","JOSC","4","m","rechts","24","","fixation","","","",""
"890","img/60_90.png","74","image-keyboard-response","335","301891","0.0-6.0-1.164","JOSC","4","m","rechts","24","","","self","j","60","true"
"null","<div style=""font-size:60px;"">+</div>","null","html-keyboard-response","336","302392","0.0-6.0-0.165","JOSC","4","m","rechts","24","","fixation","","","",""
"535","img/0_240.png","70","image-keyboard-response","337","302928","0.0-6.0-1.165","JOSC","4","m","rechts","24","","","self","f","0","true"
"null","<div style=""font-size:60px;"">+</div>","null","html-keyboard-response","338","303329","0.0-6.0-0.166","JOSC","4","m","rechts","24","","fixation","","","",""
"704","img/150_180.png","74","image-keyboard-response","339","304035","0.0-6.0-1.166","JOSC","4","m","rechts","24","","","self","j","150","true"
"null","<div style=""font-size:60px;"">+</div>","null","html-keyboard-response","340","304536","0.0-6.0-0.167","JOSC","4","m","rechts","24","","fixation","","","",""
"804","img/120_210.png","74","image-keyboard-response","341","305342","0.0-6.0-1.167","JOSC","4","m","rechts","24","","","self","j","120","true"
"null","<div style=""font-size:60px;"">+</div>","null","html-keyboard-response","342","305643","0.0-6.0-0.168","JOSC","4","m","rechts","24","","fixation","","","",""
"793","img/120_330.png","70","image-keyboard-response","343","306438","0.0-6.0-1.168","JOSC","4","m","rechts","24","","","self","f","120","true"
"null","<div style=""font-size:60px;"">+</div>","null","html-keyboard-response","344","306839","0.0-6.0-0.169","JOSC","4","m","rechts","24","","fixation","","","",""
"735","img/150_300.png","74","image-keyboard-response","345","307575","0.0-6.0-1.169","JOSC","4","m","rechts","24","","","self","j","150","true"
"null","<div style=""font-size:60px;"">+</div>","null","html-keyboard-response","346","307976","0.0-6.0-0.170","JOSC","4","m","rechts","24","","fixation","","","",""
"963","img/90_210.png","74","image-keyboard-response","347","308940","0.0-6.0-1.170","JOSC","4","m","rechts","24","","","self","j","90","true"
"null","<div style=""font-size:60px;"">+</div>","null","html-keyboard-response","348","309441","0.0-6.0-0.171","JOSC","4","m","rechts","24","","fixation","","","",""
"729","img/120_150.png","70","image-keyboard-response","349","310171","0.0-6.0-1.171","JOSC","4","m","rechts","24","","","self","f","120","true"
"null","<div style=""font-size:60px;"">+</div>","null","html-keyboard-response","350","310622","0.0-6.0-0.172","JOSC","4","m","rechts","24","","fixation","","","",""
"833","img/150_120.png","70","image-keyboard-response","351","311457","0.0-6.0-1.172","JOSC","4","m","rechts","24","","","self","f","150","true"
"null","<div style=""font-size:60px;"">+</div>","null","html-keyboard-response","352","311858","0.0-6.0-0.173","JOSC","4","m","rechts","24","","fixation","","","",""
"726","img/0_270.png","70","image-keyboard-response","353","312585","0.0-6.0-1.173","JOSC","4","m","rechts","24","","","self","f","0","true"
"null","<div style=""font-size:60px;"">+</div>","null","html-keyboard-response","354","312937","0.0-6.0-0.174","JOSC","4","m","rechts","24","","fixation","","","",""
"859","img/L120_180.png","70","image-keyboard-response","355","313796","0.0-6.0-1.174","JOSC","4","m","rechts","24","","","self","f","120","true"
"null","<div style=""font-size:60px;"">+</div>","null","html-keyboard-response","356","314248","0.0-6.0-0.175","JOSC","4","m","rechts","24","","fixation","","","",""
"798","img/L150_180.png","70","image-keyboard-response","357","315047","0.0-6.0-1.175","JOSC","4","m","rechts","24","","","self","f","150","true"
"null","<div style=""font-size:60px;"">+</div>","null","html-keyboard-response","358","315448","0.0-6.0-0.176","JOSC","4","m","rechts","24","","fixation","","","",""
"699","img/90_120.png","70","image-keyboard-response","359","316148","0.0-6.0-1.176","JOSC","4","m","rechts","24","","","self","f","90","true"
"null","<div style=""font-size:60px;"">+</div>","null","html-keyboard-response","360","316500","0.0-6.0-0.177","JOSC","4","m","rechts","24","","fixation","","","",""
"585","img/120_90.png","70","image-keyboard-response","361","317087","0.0-6.0-1.177","JOSC","4","m","rechts","24","","","self","f","120","true"
"null","<div style=""font-size:60px;"">+</div>","null","html-keyboard-response","362","317489","0.0-6.0-0.178","JOSC","4","m","rechts","24","","fixation","","","",""
"767","img/30_180.png","74","image-keyboard-response","363","318257","0.0-6.0-1.178","JOSC","4","m","rechts","24","","","self","j","30","true"
"null","<div style=""font-size:60px;"">+</div>","null","html-keyboard-response","364","318609","0.0-6.0-0.179","JOSC","4","m","rechts","24","","fixation","","","",""
"612","img/0_120.png","74","image-keyboard-response","365","319223","0.0-6.0-1.179","JOSC","4","m","rechts","24","","","self","j","0","true"
"null","<div style=""font-size:60px;"">+</div>","null","html-keyboard-response","366","319723","0.0-6.0-0.180","JOSC","4","m","rechts","24","","fixation","","","",""
"586","img/0_330.png","70","image-keyboard-response","367","320311","0.0-6.0-1.180","JOSC","4","m","rechts","24","","","self","f","0","true"
"null","<div style=""font-size:60px;"">+</div>","null","html-keyboard-response","368","320612","0.0-6.0-0.181","JOSC","4","m","rechts","24","","fixation","","","",""
"680","img/60_180.png","74","image-keyboard-response","369","321294","0.0-6.0-1.181","JOSC","4","m","rechts","24","","","self","j","60","true"
"null","<div style=""font-size:60px;"">+</div>","null","html-keyboard-response","370","321594","0.0-6.0-0.182","JOSC","4","m","rechts","24","","fixation","","","",""
"692","img/120_270.png","74","image-keyboard-response","371","322287","0.0-6.0-1.182","JOSC","4","m","rechts","24","","","self","j","120","true"
"null","<div style=""font-size:60px;"">+</div>","null","html-keyboard-response","372","322789","0.0-6.0-0.183","JOSC","4","m","rechts","24","","fixation","","","",""
"875","img/30_240.png","70","image-keyboard-response","373","323665","0.0-6.0-1.183","JOSC","4","m","rechts","24","","","self","f","30","true"
"null","<div style=""font-size:60px;"">+</div>","null","html-keyboard-response","374","324017","0.0-6.0-0.184","JOSC","4","m","rechts","24","","fixation","","","",""
"652","img/0_30.png","74","image-keyboard-response","375","324670","0.0-6.0-1.184","JOSC","4","m","rechts","24","","","self","j","0","true"
"null","<div style=""font-size:60px;"">+</div>","null","html-keyboard-response","376","325072","0.0-6.0-0.185","JOSC","4","m","rechts","24","","fixation","","","",""
"636","img/90_150.png","70","image-keyboard-response","377","325709","0.0-6.0-1.185","JOSC","4","m","rechts","24","","","self","f","90","true"
"null","<div style=""font-size:60px;"">+</div>","null","html-keyboard-response","378","326111","0.0-6.0-0.186","JOSC","4","m","rechts","24","","fixation","","","",""
"667","img/120_180.png","74","image-keyboard-response","379","326778","0.0-6.0-1.186","JOSC","4","m","rechts","24","","","self","j","120","true"
"null","<div style=""font-size:60px;"">+</div>","null","html-keyboard-response","380","327129","0.0-6.0-0.187","JOSC","4","m","rechts","24","","fixation","","","",""
"1196","img/150_240.png","74","image-keyboard-response","381","328326","0.0-6.0-1.187","JOSC","4","m","rechts","24","","","self","j","150","true"
"null","<div style=""font-size:60px;"">+</div>","null","html-keyboard-response","382","328678","0.0-6.0-0.188","JOSC","4","m","rechts","24","","fixation","","","",""
"697","img/0_90.png","74","image-keyboard-response","383","329376","0.0-6.0-1.188","JOSC","4","m","rechts","24","","","self","j","0","true"
"null","<div style=""font-size:60px;"">+</div>","null","html-keyboard-response","384","329728","0.0-6.0-0.189","JOSC","4","m","rechts","24","","fixation","","","",""
"786","img/120_30.png","74","image-keyboard-response","385","330515","0.0-6.0-1.189","JOSC","4","m","rechts","24","","","self","j","120","true"
"null","<div style=""font-size:60px;"">+</div>","null","html-keyboard-response","386","330967","0.0-6.0-0.190","JOSC","4","m","rechts","24","","fixation","","","",""
"806","img/30_90.png","74","image-keyboard-response","387","331774","0.0-6.0-1.190","JOSC","4","m","rechts","24","","","self","j","30","true"
"null","<div style=""font-size:60px;"">+</div>","null","html-keyboard-response","388","332126","0.0-6.0-0.191","JOSC","4","m","rechts","24","","fixation","","","",""
"695","img/150_90.png","70","image-keyboard-response","389","332822","0.0-6.0-1.191","JOSC","4","m","rechts","24","","","self","f","150","true"
"null","<div style=""font-size:60px;"">+</div>","null","html-keyboard-response","390","333324","0.0-6.0-0.192","JOSC","4","m","rechts","24","","fixation","","","",""
"878","img/90_60.png","74","image-keyboard-response","391","334203","0.0-6.0-1.192","JOSC","4","m","rechts","24","","","self","j","90","true"
"null","<div style=""font-size:60px;"">+</div>","null","html-keyboard-response","392","334505","0.0-6.0-0.193","JOSC","4","m","rechts","24","","fixation","","","",""
"602","img/L90_180.png","70","image-keyboard-response","393","335108","0.0-6.0-1.193","JOSC","4","m","rechts","24","","","self","f","90","true"
"null","<div style=""font-size:60px;"">+</div>","null","html-keyboard-response","394","335510","0.0-6.0-0.194","JOSC","4","m","rechts","24","","fixation","","","",""
"597","img/90_330.png","74","image-keyboard-response","395","336107","0.0-6.0-1.194","JOSC","4","m","rechts","24","","","self","f","90","false"
"null","<div style=""font-size:60px;"">+</div>","null","html-keyboard-response","396","336459","0.0-6.0-0.195","JOSC","4","m","rechts","24","","fixation","","","",""
"835","img/90_180.png","74","image-keyboard-response","397","337295","0.0-6.0-1.195","JOSC","4","m","rechts","24","","","self","j","90","true"
"null","<div style=""font-size:60px;"">+</div>","null","html-keyboard-response","398","337796","0.0-6.0-0.196","JOSC","4","m","rechts","24","","fixation","","","",""
"746","img/30_300.png","70","image-keyboard-response","399","338543","0.0-6.0-1.196","JOSC","4","m","rechts","24","","","self","f","30","true"
"null","<div style=""font-size:60px;"">+</div>","null","html-keyboard-response","400","338895","0.0-6.0-0.197","JOSC","4","m","rechts","24","","fixation","","","",""
"766","img/60_270.png","70","image-keyboard-response","401","339661","0.0-6.0-1.197","JOSC","4","m","rechts","24","","","self","f","60","true"
"null","<div style=""font-size:60px;"">+</div>","null","html-keyboard-response","402","340163","0.0-6.0-0.198","JOSC","4","m","rechts","24","","fixation","","","",""
"827","img/L30_180.png","70","image-keyboard-response","403","340990","0.0-6.0-1.198","JOSC","4","m","rechts","24","","","self","f","30","true"
"null","<div style=""font-size:60px;"">+</div>","null","html-keyboard-response","404","341442","0.0-6.0-0.199","JOSC","4","m","rechts","24","","fixation","","","",""
"551","img/L60_180.png","70","image-keyboard-response","405","341993","0.0-6.0-1.199","JOSC","4","m","rechts","24","","","self","f","60","true"
"null","<div style=""font-size:60px;"">+</div>","null","html-keyboard-response","406","342494","0.0-6.0-0.200","JOSC","4","m","rechts","24","","fixation","","","",""
"734","img/30_60.png","74","image-keyboard-response","407","343228","0.0-6.0-1.200","JOSC","4","m","rechts","24","","","self","j","30","true"
"null","<div style=""font-size:60px;"">+</div>","null","html-keyboard-response","408","343629","0.0-6.0-0.201","JOSC","4","m","rechts","24","","fixation","","","",""
"624","img/0_150.png","74","image-keyboard-response","409","344254","0.0-6.0-1.201","JOSC","4","m","rechts","24","","","self","j","0","true"
"null","<div style=""font-size:60px;"">+</div>","null","html-keyboard-response","410","344555","0.0-6.0-0.202","JOSC","4","m","rechts","24","","fixation","","","",""
"755","img/90_240.png","74","image-keyboard-response","411","345311","0.0-6.0-1.202","JOSC","4","m","rechts","24","","","self","j","90","true"
"null","<div style=""font-size:60px;"">+</div>","null","html-keyboard-response","412","345662","0.0-6.0-0.203","JOSC","4","m","rechts","24","","fixation","","","",""
"848","img/90_300.png","70","image-keyboard-response","413","346511","0.0-6.0-1.203","JOSC","4","m","rechts","24","","","self","f","90","true"
"null","<div style=""font-size:60px;"">+</div>","null","html-keyboard-response","414","346913","0.0-6.0-0.204","JOSC","4","m","rechts","24","","fixation","","","",""
"735","img/150_270.png","74","image-keyboard-response","415","347648","0.0-6.0-1.204","JOSC","4","m","rechts","24","","","self","j","150","true"
"null","<div style=""font-size:60px;"">+</div>","null","html-keyboard-response","416","348150","0.0-6.0-0.205","JOSC","4","m","rechts","24","","fixation","","","",""
"743","img/0_60.png","74","image-keyboard-response","417","348893","0.0-6.0-1.205","JOSC","4","m","rechts","24","","","self","j","0","true"
"null","<div style=""font-size:60px;"">+</div>","null","html-keyboard-response","418","349295","0.0-6.0-0.206","JOSC","4","m","rechts","24","","fixation","","","",""
"944","img/30_120.png","74","image-keyboard-response","419","350240","0.0-6.0-1.206","JOSC","4","m","rechts","24","","","self","j","30","true"
"null","<div style=""font-size:60px;"">+</div>","null","html-keyboard-response","420","350691","0.0-6.0-0.207","JOSC","4","m","rechts","24","","fixation","","","",""
"644","img/150_60.png","70","image-keyboard-response","421","351336","0.0-6.0-1.207","JOSC","4","m","rechts","24","","","self","f","150","true"
"27720","<p>Du hast in 96% der Versuche korrekt entschieden.</p><p>Deine durchschnittliche Reaktionszeit war  833ms.</p><p>Dr&uuml;cke eine beliebige Taste, um die Session zu beenden. Vielen Dank!</p>","85","html-keyboard-response","422","379057","0.0-7.0","JOSC","4","m","rechts","24","","","","","",""
