"rt","stimulus","key_press","trial_type","trial_index","time_elapsed","internal_node_id","subject","session","sex","handedness","age","responses","test_part","condition","correct_response","angle","correct"
"1387","<p>Mental Rotation Experiment.</p> <p>Dr&uuml;cke eine beliebige Taste, um anzufangen.</p>","71","html-keyboard-response","0","1392","0.0-0.0","JOSC","2","m","rechts","24","","","","","",""
"6109","","","survey-text","1","7503","0.0-1.0","JOSC","2","m","rechts","24","{""Q0"":""JOSC""}","","","","",""
"5415","","","survey-text","2","12918","0.0-2.0","JOSC","2","m","rechts","24","{""Q0"":""2""}","","","","",""
"4511","","","survey-multi-choice","3","17432","0.0-3.0","JOSC","2","m","rechts","24","{""Q0"":""m"",""Q1"":""rechts""}","","","","",""
"3055","","","survey-text","4","20487","0.0-4.0","JOSC","2","m","rechts","24","{""Q0"":""24""}","","","","",""
"222221","<p> Stell dir vor, dass du vor einem runden Tisch stehst, auf dem sich ein blauer Ball am Tischrand befindet. Entlang des Tischrands ist jeweils ein verschieden langer Pfeil. Nun bewegst du dich entlang dieses Pfeils bis an seine Spitze. Wenn du am Ende des Pfeils angekommen bist, schau zur Tischmitte. </p> <img src='img/90_180.png'></img> <br> <p>Entscheide dann, ob der Ball von deiner neuen (vorgestellten) Position links oder rechts von dir liegt.</p> <p>Dr&uuml;cke die <strong>'f'</strong>-Taste f&uuml;r links, die <strong>'j'</strong>-Taste f&uuml;r rechts.</p> <br><p> Das Bild wird jeweils 1 Sekunde lang pr&auml;sentiert. Du hast 3 Sekunden Zeit eine Entscheidung zu treffen.</p>","74","html-keyboard-response","5","242709","0.0-5.0","JOSC","2","m","rechts","24","","","","","",""
"null","<div style=""font-size:60px;"">+</div>","null","html-keyboard-response","6","244213","0.0-6.0-0.0","JOSC","2","m","rechts","24","","fixation","","","",""
"1528","img/30_60.png","74","image-keyboard-response","7","245744","0.0-6.0-1.0","JOSC","2","m","rechts","24","","","self","j","30","true"
"null","<div style=""font-size:60px;"">+</div>","null","html-keyboard-response","8","246196","0.0-6.0-0.1","JOSC","2","m","rechts","24","","fixation","","","",""
"1267","img/90_30.png","74","image-keyboard-response","9","247464","0.0-6.0-1.1","JOSC","2","m","rechts","24","","","self","j","90","true"
"null","<div style=""font-size:60px;"">+</div>","null","html-keyboard-response","10","247815","0.0-6.0-0.2","JOSC","2","m","rechts","24","","fixation","","","",""
"1408","img/120_30.png","74","image-keyboard-response","11","249226","0.0-6.0-1.2","JOSC","2","m","rechts","24","","","self","j","120","true"
"null","<div style=""font-size:60px;"">+</div>","null","html-keyboard-response","12","249676","0.0-6.0-0.3","JOSC","2","m","rechts","24","","fixation","","","",""
"1095","img/30_120.png","74","image-keyboard-response","13","250773","0.0-6.0-1.3","JOSC","2","m","rechts","24","","","self","j","30","true"
"null","<div style=""font-size:60px;"">+</div>","null","html-keyboard-response","14","251274","0.0-6.0-0.4","JOSC","2","m","rechts","24","","fixation","","","",""
"904","img/L120_180.png","70","image-keyboard-response","15","252179","0.0-6.0-1.4","JOSC","2","m","rechts","24","","","self","f","120","true"
"null","<div style=""font-size:60px;"">+</div>","null","html-keyboard-response","16","252631","0.0-6.0-0.5","JOSC","2","m","rechts","24","","fixation","","","",""
"883","img/L60_180.png","70","image-keyboard-response","17","253515","0.0-6.0-1.5","JOSC","2","m","rechts","24","","","self","f","60","true"
"null","<div style=""font-size:60px;"">+</div>","null","html-keyboard-response","18","253917","0.0-6.0-0.6","JOSC","2","m","rechts","24","","fixation","","","",""
"816","img/120_90.png","70","image-keyboard-response","19","254735","0.0-6.0-1.6","JOSC","2","m","rechts","24","","","self","f","120","true"
"null","<div style=""font-size:60px;"">+</div>","null","html-keyboard-response","20","255186","0.0-6.0-0.7","JOSC","2","m","rechts","24","","fixation","","","",""
"1070","img/150_180.png","74","image-keyboard-response","21","256257","0.0-6.0-1.7","JOSC","2","m","rechts","24","","","self","j","150","true"
"null","<div style=""font-size:60px;"">+</div>","null","html-keyboard-response","22","256608","0.0-6.0-0.8","JOSC","2","m","rechts","24","","fixation","","","",""
"1013","img/0_120.png","74","image-keyboard-response","23","257623","0.0-6.0-1.8","JOSC","2","m","rechts","24","","","self","j","0","true"
"null","<div style=""font-size:60px;"">+</div>","null","html-keyboard-response","24","258124","0.0-6.0-0.9","JOSC","2","m","rechts","24","","fixation","","","",""
"767","img/0_60.png","74","image-keyboard-response","25","258893","0.0-6.0-1.9","JOSC","2","m","rechts","24","","","self","j","0","true"
"null","<div style=""font-size:60px;"">+</div>","null","html-keyboard-response","26","259295","0.0-6.0-0.10","JOSC","2","m","rechts","24","","fixation","","","",""
"802","img/0_150.png","74","image-keyboard-response","27","260098","0.0-6.0-1.10","JOSC","2","m","rechts","24","","","self","j","0","true"
"null","<div style=""font-size:60px;"">+</div>","null","html-keyboard-response","28","260449","0.0-6.0-0.11","JOSC","2","m","rechts","24","","fixation","","","",""
"1190","img/30_90.png","74","image-keyboard-response","29","261642","0.0-6.0-1.11","JOSC","2","m","rechts","24","","","self","j","30","true"
"null","<div style=""font-size:60px;"">+</div>","null","html-keyboard-response","30","261994","0.0-6.0-0.12","JOSC","2","m","rechts","24","","fixation","","","",""
"1132","img/150_300.png","70","image-keyboard-response","31","263128","0.0-6.0-1.12","JOSC","2","m","rechts","24","","","self","j","150","false"
"null","<div style=""font-size:60px;"">+</div>","null","html-keyboard-response","32","263429","0.0-6.0-0.13","JOSC","2","m","rechts","24","","fixation","","","",""
"1256","img/L150_180.png","70","image-keyboard-response","33","264687","0.0-6.0-1.13","JOSC","2","m","rechts","24","","","self","f","150","true"
"null","<div style=""font-size:60px;"">+</div>","null","html-keyboard-response","34","264988","0.0-6.0-0.14","JOSC","2","m","rechts","24","","fixation","","","",""
"786","img/L90_180.png","70","image-keyboard-response","35","265776","0.0-6.0-1.14","JOSC","2","m","rechts","24","","","self","f","90","true"
"null","<div style=""font-size:60px;"">+</div>","null","html-keyboard-response","36","266177","0.0-6.0-0.15","JOSC","2","m","rechts","24","","fixation","","","",""
"797","img/120_180.png","74","image-keyboard-response","37","266977","0.0-6.0-1.15","JOSC","2","m","rechts","24","","","self","j","120","true"
"null","<div style=""font-size:60px;"">+</div>","null","html-keyboard-response","38","267379","0.0-6.0-0.16","JOSC","2","m","rechts","24","","fixation","","","",""
"830","img/0_300.png","70","image-keyboard-response","39","268210","0.0-6.0-1.16","JOSC","2","m","rechts","24","","","self","f","0","true"
"null","<div style=""font-size:60px;"">+</div>","null","html-keyboard-response","40","268562","0.0-6.0-0.17","JOSC","2","m","rechts","24","","fixation","","","",""
"874","img/60_150.png","70","image-keyboard-response","41","269437","0.0-6.0-1.17","JOSC","2","m","rechts","24","","","self","f","60","true"
"null","<div style=""font-size:60px;"">+</div>","null","html-keyboard-response","42","269939","0.0-6.0-0.18","JOSC","2","m","rechts","24","","fixation","","","",""
"892","img/120_150.png","70","image-keyboard-response","43","270833","0.0-6.0-1.18","JOSC","2","m","rechts","24","","","self","f","120","true"
"null","<div style=""font-size:60px;"">+</div>","null","html-keyboard-response","44","271334","0.0-6.0-0.19","JOSC","2","m","rechts","24","","fixation","","","",""
"763","img/150_90.png","70","image-keyboard-response","45","272100","0.0-6.0-1.19","JOSC","2","m","rechts","24","","","self","f","150","true"
"null","<div style=""font-size:60px;"">+</div>","null","html-keyboard-response","46","272451","0.0-6.0-0.20","JOSC","2","m","rechts","24","","fixation","","","",""
"1163","img/30_300.png","70","image-keyboard-response","47","273616","0.0-6.0-1.20","JOSC","2","m","rechts","24","","","self","f","30","true"
"null","<div style=""font-size:60px;"">+</div>","null","html-keyboard-response","48","273968","0.0-6.0-0.21","JOSC","2","m","rechts","24","","fixation","","","",""
"879","img/30_180.png","74","image-keyboard-response","49","274848","0.0-6.0-1.21","JOSC","2","m","rechts","24","","","self","j","30","true"
"null","<div style=""font-size:60px;"">+</div>","null","html-keyboard-response","50","275250","0.0-6.0-0.22","JOSC","2","m","rechts","24","","fixation","","","",""
"817","img/150_120.png","70","image-keyboard-response","51","276068","0.0-6.0-1.22","JOSC","2","m","rechts","24","","","self","f","150","true"
"null","<div style=""font-size:60px;"">+</div>","null","html-keyboard-response","52","276520","0.0-6.0-0.23","JOSC","2","m","rechts","24","","fixation","","","",""
"698","img/0_240.png","70","image-keyboard-response","53","277220","0.0-6.0-1.23","JOSC","2","m","rechts","24","","","self","f","0","true"
"null","<div style=""font-size:60px;"">+</div>","null","html-keyboard-response","54","277671","0.0-6.0-0.24","JOSC","2","m","rechts","24","","fixation","","","",""
"742","img/150_60.png","70","image-keyboard-response","55","278415","0.0-6.0-1.24","JOSC","2","m","rechts","24","","","self","f","150","true"
"null","<div style=""font-size:60px;"">+</div>","null","html-keyboard-response","56","278717","0.0-6.0-0.25","JOSC","2","m","rechts","24","","fixation","","","",""
"843","img/0_90.png","74","image-keyboard-response","57","279561","0.0-6.0-1.25","JOSC","2","m","rechts","24","","","self","j","0","true"
"null","<div style=""font-size:60px;"">+</div>","null","html-keyboard-response","58","280013","0.0-6.0-0.26","JOSC","2","m","rechts","24","","fixation","","","",""
"1130","img/60_30.png","74","image-keyboard-response","59","281144","0.0-6.0-1.26","JOSC","2","m","rechts","24","","","self","j","60","true"
"null","<div style=""font-size:60px;"">+</div>","null","html-keyboard-response","60","281496","0.0-6.0-0.27","JOSC","2","m","rechts","24","","fixation","","","",""
"930","img/30_240.png","70","image-keyboard-response","61","282427","0.0-6.0-1.27","JOSC","2","m","rechts","24","","","self","f","30","true"
"null","<div style=""font-size:60px;"">+</div>","null","html-keyboard-response","62","282879","0.0-6.0-0.28","JOSC","2","m","rechts","24","","fixation","","","",""
"820","img/0_270.png","70","image-keyboard-response","63","283700","0.0-6.0-1.28","JOSC","2","m","rechts","24","","","self","f","0","true"
"null","<div style=""font-size:60px;"">+</div>","null","html-keyboard-response","64","284202","0.0-6.0-0.29","JOSC","2","m","rechts","24","","fixation","","","",""
"1046","img/60_330.png","70","image-keyboard-response","65","285249","0.0-6.0-1.29","JOSC","2","m","rechts","24","","","self","f","60","true"
"null","<div style=""font-size:60px;"">+</div>","null","html-keyboard-response","66","285551","0.0-6.0-0.30","JOSC","2","m","rechts","24","","fixation","","","",""
"793","img/60_180.png","74","image-keyboard-response","67","286345","0.0-6.0-1.30","JOSC","2","m","rechts","24","","","self","j","60","true"
"null","<div style=""font-size:60px;"">+</div>","null","html-keyboard-response","68","286797","0.0-6.0-0.31","JOSC","2","m","rechts","24","","fixation","","","",""
"950","img/0_30.png","74","image-keyboard-response","69","287748","0.0-6.0-1.31","JOSC","2","m","rechts","24","","","self","j","0","true"
"null","<div style=""font-size:60px;"">+</div>","null","html-keyboard-response","70","288250","0.0-6.0-0.32","JOSC","2","m","rechts","24","","fixation","","","",""
"809","img/120_270.png","74","image-keyboard-response","71","289060","0.0-6.0-1.32","JOSC","2","m","rechts","24","","","self","j","120","true"
"null","<div style=""font-size:60px;"">+</div>","null","html-keyboard-response","72","289562","0.0-6.0-0.33","JOSC","2","m","rechts","24","","fixation","","","",""
"821","img/30_270.png","70","image-keyboard-response","73","290384","0.0-6.0-1.33","JOSC","2","m","rechts","24","","","self","f","30","true"
"null","<div style=""font-size:60px;"">+</div>","null","html-keyboard-response","74","290736","0.0-6.0-0.34","JOSC","2","m","rechts","24","","fixation","","","",""
"967","img/60_270.png","70","image-keyboard-response","75","291704","0.0-6.0-1.34","JOSC","2","m","rechts","24","","","self","f","60","true"
"null","<div style=""font-size:60px;"">+</div>","null","html-keyboard-response","76","292056","0.0-6.0-0.35","JOSC","2","m","rechts","24","","fixation","","","",""
"770","img/90_240.png","74","image-keyboard-response","77","292827","0.0-6.0-1.35","JOSC","2","m","rechts","24","","","self","j","90","true"
"null","<div style=""font-size:60px;"">+</div>","null","html-keyboard-response","78","293329","0.0-6.0-0.36","JOSC","2","m","rechts","24","","fixation","","","",""
"1252","img/120_330.png","70","image-keyboard-response","79","294582","0.0-6.0-1.36","JOSC","2","m","rechts","24","","","self","f","120","true"
"null","<div style=""font-size:60px;"">+</div>","null","html-keyboard-response","80","294884","0.0-6.0-0.37","JOSC","2","m","rechts","24","","fixation","","","",""
"733","img/90_180.png","74","image-keyboard-response","81","295618","0.0-6.0-1.37","JOSC","2","m","rechts","24","","","self","j","90","true"
"null","<div style=""font-size:60px;"">+</div>","null","html-keyboard-response","82","296070","0.0-6.0-0.38","JOSC","2","m","rechts","24","","fixation","","","",""
"734","img/0_330.png","70","image-keyboard-response","83","296805","0.0-6.0-1.38","JOSC","2","m","rechts","24","","","self","f","0","true"
"null","<div style=""font-size:60px;"">+</div>","null","html-keyboard-response","84","297157","0.0-6.0-0.39","JOSC","2","m","rechts","24","","fixation","","","",""
"831","img/90_330.png","70","image-keyboard-response","85","297990","0.0-6.0-1.39","JOSC","2","m","rechts","24","","","self","f","90","true"
"null","<div style=""font-size:60px;"">+</div>","null","html-keyboard-response","86","298491","0.0-6.0-0.40","JOSC","2","m","rechts","24","","fixation","","","",""
"736","img/150_240.png","74","image-keyboard-response","87","299228","0.0-6.0-1.40","JOSC","2","m","rechts","24","","","self","j","150","true"
"null","<div style=""font-size:60px;"">+</div>","null","html-keyboard-response","88","299730","0.0-6.0-0.41","JOSC","2","m","rechts","24","","fixation","","","",""
"856","img/90_210.png","74","image-keyboard-response","89","300587","0.0-6.0-1.41","JOSC","2","m","rechts","24","","","self","j","90","true"
"null","<div style=""font-size:60px;"">+</div>","null","html-keyboard-response","90","300989","0.0-6.0-0.42","JOSC","2","m","rechts","24","","fixation","","","",""
"646","img/120_210.png","74","image-keyboard-response","91","301636","0.0-6.0-1.42","JOSC","2","m","rechts","24","","","self","j","120","true"
"null","<div style=""font-size:60px;"">+</div>","null","html-keyboard-response","92","302138","0.0-6.0-0.43","JOSC","2","m","rechts","24","","fixation","","","",""
"780","img/90_300.png","70","image-keyboard-response","93","302919","0.0-6.0-1.43","JOSC","2","m","rechts","24","","","self","f","90","true"
"null","<div style=""font-size:60px;"">+</div>","null","html-keyboard-response","94","303320","0.0-6.0-0.44","JOSC","2","m","rechts","24","","fixation","","","",""
"728","img/0_210.png","70","image-keyboard-response","95","304049","0.0-6.0-1.44","JOSC","2","m","rechts","24","","","self","f","0","true"
"null","<div style=""font-size:60px;"">+</div>","null","html-keyboard-response","96","304351","0.0-6.0-0.45","JOSC","2","m","rechts","24","","fixation","","","",""
"847","img/150_270.png","74","image-keyboard-response","97","305199","0.0-6.0-1.45","JOSC","2","m","rechts","24","","","self","j","150","true"
"null","<div style=""font-size:60px;"">+</div>","null","html-keyboard-response","98","305501","0.0-6.0-0.46","JOSC","2","m","rechts","24","","fixation","","","",""
"1138","img/90_120.png","70","image-keyboard-response","99","306640","0.0-6.0-1.46","JOSC","2","m","rechts","24","","","self","f","90","true"
"null","<div style=""font-size:60px;"">+</div>","null","html-keyboard-response","100","307092","0.0-6.0-0.47","JOSC","2","m","rechts","24","","fixation","","","",""
"815","img/60_210.png","74","image-keyboard-response","101","307909","0.0-6.0-1.47","JOSC","2","m","rechts","24","","","self","j","60","true"
"null","<div style=""font-size:60px;"">+</div>","null","html-keyboard-response","102","308310","0.0-6.0-0.48","JOSC","2","m","rechts","24","","fixation","","","",""
"968","img/90_60.png","74","image-keyboard-response","103","309280","0.0-6.0-1.48","JOSC","2","m","rechts","24","","","self","j","90","true"
"null","<div style=""font-size:60px;"">+</div>","null","html-keyboard-response","104","309681","0.0-6.0-0.49","JOSC","2","m","rechts","24","","fixation","","","",""
"897","img/60_90.png","74","image-keyboard-response","105","310579","0.0-6.0-1.49","JOSC","2","m","rechts","24","","","self","j","60","true"
"null","<div style=""font-size:60px;"">+</div>","null","html-keyboard-response","106","310981","0.0-6.0-0.50","JOSC","2","m","rechts","24","","fixation","","","",""
"743","img/90_150.png","70","image-keyboard-response","107","311725","0.0-6.0-1.50","JOSC","2","m","rechts","24","","","self","f","90","true"
"null","<div style=""font-size:60px;"">+</div>","null","html-keyboard-response","108","312076","0.0-6.0-0.51","JOSC","2","m","rechts","24","","fixation","","","",""
"865","img/L30_180.png","70","image-keyboard-response","109","312942","0.0-6.0-1.51","JOSC","2","m","rechts","24","","","self","f","30","true"
"null","<div style=""font-size:60px;"">+</div>","null","html-keyboard-response","110","313443","0.0-6.0-0.52","JOSC","2","m","rechts","24","","fixation","","","",""
"784","img/150_90.png","70","image-keyboard-response","111","314229","0.0-6.0-1.52","JOSC","2","m","rechts","24","","","self","f","150","true"
"null","<div style=""font-size:60px;"">+</div>","null","html-keyboard-response","112","314730","0.0-6.0-0.53","JOSC","2","m","rechts","24","","fixation","","","",""
"852","img/150_120.png","70","image-keyboard-response","113","315583","0.0-6.0-1.53","JOSC","2","m","rechts","24","","","self","f","150","true"
"null","<div style=""font-size:60px;"">+</div>","null","html-keyboard-response","114","315984","0.0-6.0-0.54","JOSC","2","m","rechts","24","","fixation","","","",""
"1538","img/120_330.png","70","image-keyboard-response","115","317523","0.0-6.0-1.54","JOSC","2","m","rechts","24","","","self","f","120","true"
"null","<div style=""font-size:60px;"">+</div>","null","html-keyboard-response","116","317824","0.0-6.0-0.55","JOSC","2","m","rechts","24","","fixation","","","",""
"898","img/120_270.png","74","image-keyboard-response","117","318724","0.0-6.0-1.55","JOSC","2","m","rechts","24","","","self","j","120","true"
"null","<div style=""font-size:60px;"">+</div>","null","html-keyboard-response","118","319225","0.0-6.0-0.56","JOSC","2","m","rechts","24","","fixation","","","",""
"839","img/120_90.png","70","image-keyboard-response","119","320066","0.0-6.0-1.56","JOSC","2","m","rechts","24","","","self","f","120","true"
"null","<div style=""font-size:60px;"">+</div>","null","html-keyboard-response","120","320517","0.0-6.0-0.57","JOSC","2","m","rechts","24","","fixation","","","",""
"938","img/90_240.png","74","image-keyboard-response","121","321457","0.0-6.0-1.57","JOSC","2","m","rechts","24","","","self","j","90","true"
"null","<div style=""font-size:60px;"">+</div>","null","html-keyboard-response","122","321958","0.0-6.0-0.58","JOSC","2","m","rechts","24","","fixation","","","",""
"819","img/90_120.png","70","image-keyboard-response","123","322779","0.0-6.0-1.58","JOSC","2","m","rechts","24","","","self","f","90","true"
"null","<div style=""font-size:60px;"">+</div>","null","html-keyboard-response","124","323180","0.0-6.0-0.59","JOSC","2","m","rechts","24","","fixation","","","",""
"718","img/60_180.png","74","image-keyboard-response","125","323900","0.0-6.0-1.59","JOSC","2","m","rechts","24","","","self","j","60","true"
"null","<div style=""font-size:60px;"">+</div>","null","html-keyboard-response","126","324301","0.0-6.0-0.60","JOSC","2","m","rechts","24","","fixation","","","",""
"633","img/60_150.png","70","image-keyboard-response","127","324934","0.0-6.0-1.60","JOSC","2","m","rechts","24","","","self","f","60","true"
"null","<div style=""font-size:60px;"">+</div>","null","html-keyboard-response","128","325286","0.0-6.0-0.61","JOSC","2","m","rechts","24","","fixation","","","",""
"645","img/90_150.png","70","image-keyboard-response","129","325932","0.0-6.0-1.61","JOSC","2","m","rechts","24","","","self","f","90","true"
"null","<div style=""font-size:60px;"">+</div>","null","html-keyboard-response","130","326433","0.0-6.0-0.62","JOSC","2","m","rechts","24","","fixation","","","",""
"955","img/30_300.png","70","image-keyboard-response","131","327389","0.0-6.0-1.62","JOSC","2","m","rechts","24","","","self","f","30","true"
"null","<div style=""font-size:60px;"">+</div>","null","html-keyboard-response","132","327891","0.0-6.0-0.63","JOSC","2","m","rechts","24","","fixation","","","",""
"788","img/120_210.png","74","image-keyboard-response","133","328680","0.0-6.0-1.63","JOSC","2","m","rechts","24","","","self","j","120","true"
"null","<div style=""font-size:60px;"">+</div>","null","html-keyboard-response","134","329032","0.0-6.0-0.64","JOSC","2","m","rechts","24","","fixation","","","",""
"749","img/60_270.png","70","image-keyboard-response","135","329782","0.0-6.0-1.64","JOSC","2","m","rechts","24","","","self","f","60","true"
"null","<div style=""font-size:60px;"">+</div>","null","html-keyboard-response","136","330235","0.0-6.0-0.65","JOSC","2","m","rechts","24","","fixation","","","",""
"713","img/60_330.png","70","image-keyboard-response","137","330948","0.0-6.0-1.65","JOSC","2","m","rechts","24","","","self","f","60","true"
"null","<div style=""font-size:60px;"">+</div>","null","html-keyboard-response","138","331250","0.0-6.0-0.66","JOSC","2","m","rechts","24","","fixation","","","",""
"798","img/90_60.png","74","image-keyboard-response","139","332049","0.0-6.0-1.66","JOSC","2","m","rechts","24","","","self","j","90","true"
"null","<div style=""font-size:60px;"">+</div>","null","html-keyboard-response","140","332400","0.0-6.0-0.67","JOSC","2","m","rechts","24","","fixation","","","",""
"772","img/120_150.png","70","image-keyboard-response","141","333173","0.0-6.0-1.67","JOSC","2","m","rechts","24","","","self","f","120","true"
"null","<div style=""font-size:60px;"">+</div>","null","html-keyboard-response","142","333524","0.0-6.0-0.68","JOSC","2","m","rechts","24","","fixation","","","",""
"838","img/90_300.png","70","image-keyboard-response","143","334363","0.0-6.0-1.68","JOSC","2","m","rechts","24","","","self","f","90","true"
"null","<div style=""font-size:60px;"">+</div>","null","html-keyboard-response","144","334865","0.0-6.0-0.69","JOSC","2","m","rechts","24","","fixation","","","",""
"730","img/L90_180.png","70","image-keyboard-response","145","335597","0.0-6.0-1.69","JOSC","2","m","rechts","24","","","self","f","90","true"
"null","<div style=""font-size:60px;"">+</div>","null","html-keyboard-response","146","335898","0.0-6.0-0.70","JOSC","2","m","rechts","24","","fixation","","","",""
"741","img/90_330.png","70","image-keyboard-response","147","336640","0.0-6.0-1.70","JOSC","2","m","rechts","24","","","self","f","90","true"
"null","<div style=""font-size:60px;"">+</div>","null","html-keyboard-response","148","336992","0.0-6.0-0.71","JOSC","2","m","rechts","24","","fixation","","","",""
"757","img/0_300.png","70","image-keyboard-response","149","337750","0.0-6.0-1.71","JOSC","2","m","rechts","24","","","self","f","0","true"
"null","<div style=""font-size:60px;"">+</div>","null","html-keyboard-response","150","338052","0.0-6.0-0.72","JOSC","2","m","rechts","24","","fixation","","","",""
"1240","img/30_60.png","74","image-keyboard-response","151","339293","0.0-6.0-1.72","JOSC","2","m","rechts","24","","","self","j","30","true"
"null","<div style=""font-size:60px;"">+</div>","null","html-keyboard-response","152","339595","0.0-6.0-0.73","JOSC","2","m","rechts","24","","fixation","","","",""
"806","img/30_180.png","74","image-keyboard-response","153","340401","0.0-6.0-1.73","JOSC","2","m","rechts","24","","","self","j","30","true"
"null","<div style=""font-size:60px;"">+</div>","null","html-keyboard-response","154","340703","0.0-6.0-0.74","JOSC","2","m","rechts","24","","fixation","","","",""
"832","img/0_60.png","74","image-keyboard-response","155","341535","0.0-6.0-1.74","JOSC","2","m","rechts","24","","","self","j","0","true"
"null","<div style=""font-size:60px;"">+</div>","null","html-keyboard-response","156","342037","0.0-6.0-0.75","JOSC","2","m","rechts","24","","fixation","","","",""
"902","img/30_90.png","74","image-keyboard-response","157","342940","0.0-6.0-1.75","JOSC","2","m","rechts","24","","","self","j","30","true"
"null","<div style=""font-size:60px;"">+</div>","null","html-keyboard-response","158","343291","0.0-6.0-0.76","JOSC","2","m","rechts","24","","fixation","","","",""
"809","img/30_240.png","70","image-keyboard-response","159","344101","0.0-6.0-1.76","JOSC","2","m","rechts","24","","","self","f","30","true"
"null","<div style=""font-size:60px;"">+</div>","null","html-keyboard-response","160","344453","0.0-6.0-0.77","JOSC","2","m","rechts","24","","fixation","","","",""
"825","img/L120_180.png","70","image-keyboard-response","161","345278","0.0-6.0-1.77","JOSC","2","m","rechts","24","","","self","f","120","true"
"null","<div style=""font-size:60px;"">+</div>","null","html-keyboard-response","162","345780","0.0-6.0-0.78","JOSC","2","m","rechts","24","","fixation","","","",""
"824","img/150_180.png","74","image-keyboard-response","163","346604","0.0-6.0-1.78","JOSC","2","m","rechts","24","","","self","j","150","true"
"null","<div style=""font-size:60px;"">+</div>","null","html-keyboard-response","164","346955","0.0-6.0-0.79","JOSC","2","m","rechts","24","","fixation","","","",""
"660","img/0_330.png","70","image-keyboard-response","165","347616","0.0-6.0-1.79","JOSC","2","m","rechts","24","","","self","f","0","true"
"null","<div style=""font-size:60px;"">+</div>","null","html-keyboard-response","166","347918","0.0-6.0-0.80","JOSC","2","m","rechts","24","","fixation","","","",""
"726","img/0_120.png","70","image-keyboard-response","167","348645","0.0-6.0-1.80","JOSC","2","m","rechts","24","","","self","j","0","false"
"null","<div style=""font-size:60px;"">+</div>","null","html-keyboard-response","168","349096","0.0-6.0-0.81","JOSC","2","m","rechts","24","","fixation","","","",""
"1215","img/L30_180.png","70","image-keyboard-response","169","350312","0.0-6.0-1.81","JOSC","2","m","rechts","24","","","self","f","30","true"
"null","<div style=""font-size:60px;"">+</div>","null","html-keyboard-response","170","350613","0.0-6.0-0.82","JOSC","2","m","rechts","24","","fixation","","","",""
"1123","img/60_210.png","74","image-keyboard-response","171","351736","0.0-6.0-1.82","JOSC","2","m","rechts","24","","","self","j","60","true"
"null","<div style=""font-size:60px;"">+</div>","null","html-keyboard-response","172","352188","0.0-6.0-0.83","JOSC","2","m","rechts","24","","fixation","","","",""
"833","img/90_30.png","74","image-keyboard-response","173","353021","0.0-6.0-1.83","JOSC","2","m","rechts","24","","","self","j","90","true"
"null","<div style=""font-size:60px;"">+</div>","null","html-keyboard-response","174","353423","0.0-6.0-0.84","JOSC","2","m","rechts","24","","fixation","","","",""
"714","img/0_90.png","74","image-keyboard-response","175","354137","0.0-6.0-1.84","JOSC","2","m","rechts","24","","","self","j","0","true"
"null","<div style=""font-size:60px;"">+</div>","null","html-keyboard-response","176","354539","0.0-6.0-0.85","JOSC","2","m","rechts","24","","fixation","","","",""
"702","img/0_240.png","70","image-keyboard-response","177","355241","0.0-6.0-1.85","JOSC","2","m","rechts","24","","","self","f","0","true"
"null","<div style=""font-size:60px;"">+</div>","null","html-keyboard-response","178","355742","0.0-6.0-0.86","JOSC","2","m","rechts","24","","fixation","","","",""
"890","img/30_120.png","74","image-keyboard-response","179","356633","0.0-6.0-1.86","JOSC","2","m","rechts","24","","","self","j","30","true"
"null","<div style=""font-size:60px;"">+</div>","null","html-keyboard-response","180","357033","0.0-6.0-0.87","JOSC","2","m","rechts","24","","fixation","","","",""
"667","img/0_270.png","70","image-keyboard-response","181","357702","0.0-6.0-1.87","JOSC","2","m","rechts","24","","","self","f","0","true"
"null","<div style=""font-size:60px;"">+</div>","null","html-keyboard-response","182","358204","0.0-6.0-0.88","JOSC","2","m","rechts","24","","fixation","","","",""
"870","img/150_300.png","74","image-keyboard-response","183","359074","0.0-6.0-1.88","JOSC","2","m","rechts","24","","","self","j","150","true"
"null","<div style=""font-size:60px;"">+</div>","null","html-keyboard-response","184","359526","0.0-6.0-0.89","JOSC","2","m","rechts","24","","fixation","","","",""
"673","img/60_30.png","74","image-keyboard-response","185","360199","0.0-6.0-1.89","JOSC","2","m","rechts","24","","","self","j","60","true"
"null","<div style=""font-size:60px;"">+</div>","null","html-keyboard-response","186","360500","0.0-6.0-0.90","JOSC","2","m","rechts","24","","fixation","","","",""
"856","img/90_210.png","74","image-keyboard-response","187","361358","0.0-6.0-1.90","JOSC","2","m","rechts","24","","","self","j","90","true"
"null","<div style=""font-size:60px;"">+</div>","null","html-keyboard-response","188","361810","0.0-6.0-0.91","JOSC","2","m","rechts","24","","fixation","","","",""
"793","img/0_150.png","74","image-keyboard-response","189","362603","0.0-6.0-1.91","JOSC","2","m","rechts","24","","","self","j","0","true"
"null","<div style=""font-size:60px;"">+</div>","null","html-keyboard-response","190","362904","0.0-6.0-0.92","JOSC","2","m","rechts","24","","fixation","","","",""
"774","img/0_30.png","74","image-keyboard-response","191","363679","0.0-6.0-1.92","JOSC","2","m","rechts","24","","","self","j","0","true"
"null","<div style=""font-size:60px;"">+</div>","null","html-keyboard-response","192","364180","0.0-6.0-0.93","JOSC","2","m","rechts","24","","fixation","","","",""
"916","img/30_270.png","70","image-keyboard-response","193","365097","0.0-6.0-1.93","JOSC","2","m","rechts","24","","","self","f","30","true"
"null","<div style=""font-size:60px;"">+</div>","null","html-keyboard-response","194","365599","0.0-6.0-0.94","JOSC","2","m","rechts","24","","fixation","","","",""
"1149","img/120_30.png","74","image-keyboard-response","195","366749","0.0-6.0-1.94","JOSC","2","m","rechts","24","","","self","j","120","true"
"null","<div style=""font-size:60px;"">+</div>","null","html-keyboard-response","196","367200","0.0-6.0-0.95","JOSC","2","m","rechts","24","","fixation","","","",""
"746","img/L150_180.png","70","image-keyboard-response","197","367947","0.0-6.0-1.95","JOSC","2","m","rechts","24","","","self","f","150","true"
"null","<div style=""font-size:60px;"">+</div>","null","html-keyboard-response","198","368299","0.0-6.0-0.96","JOSC","2","m","rechts","24","","fixation","","","",""
"996","img/L60_180.png","70","image-keyboard-response","199","369296","0.0-6.0-1.96","JOSC","2","m","rechts","24","","","self","f","60","true"
"null","<div style=""font-size:60px;"">+</div>","null","html-keyboard-response","200","369748","0.0-6.0-0.97","JOSC","2","m","rechts","24","","fixation","","","",""
"766","img/150_60.png","70","image-keyboard-response","201","370515","0.0-6.0-1.97","JOSC","2","m","rechts","24","","","self","f","150","true"
"null","<div style=""font-size:60px;"">+</div>","null","html-keyboard-response","202","370917","0.0-6.0-0.98","JOSC","2","m","rechts","24","","fixation","","","",""
"710","img/0_210.png","70","image-keyboard-response","203","371629","0.0-6.0-1.98","JOSC","2","m","rechts","24","","","self","f","0","true"
"null","<div style=""font-size:60px;"">+</div>","null","html-keyboard-response","204","371980","0.0-6.0-0.99","JOSC","2","m","rechts","24","","fixation","","","",""
"1618","img/90_180.png","74","image-keyboard-response","205","373600","0.0-6.0-1.99","JOSC","2","m","rechts","24","","","self","j","90","true"
"null","<div style=""font-size:60px;"">+</div>","null","html-keyboard-response","206","374051","0.0-6.0-0.100","JOSC","2","m","rechts","24","","fixation","","","",""
"1082","img/150_270.png","74","image-keyboard-response","207","375134","0.0-6.0-1.100","JOSC","2","m","rechts","24","","","self","j","150","true"
"null","<div style=""font-size:60px;"">+</div>","null","html-keyboard-response","208","375636","0.0-6.0-0.101","JOSC","2","m","rechts","24","","fixation","","","",""
"823","img/60_90.png","74","image-keyboard-response","209","376460","0.0-6.0-1.101","JOSC","2","m","rechts","24","","","self","j","60","true"
"null","<div style=""font-size:60px;"">+</div>","null","html-keyboard-response","210","376912","0.0-6.0-0.102","JOSC","2","m","rechts","24","","fixation","","","",""
"1132","img/150_240.png","74","image-keyboard-response","211","378045","0.0-6.0-1.102","JOSC","2","m","rechts","24","","","self","j","150","true"
"null","<div style=""font-size:60px;"">+</div>","null","html-keyboard-response","212","378397","0.0-6.0-0.103","JOSC","2","m","rechts","24","","fixation","","","",""
"716","img/120_180.png","74","image-keyboard-response","213","379113","0.0-6.0-1.103","JOSC","2","m","rechts","24","","","self","j","120","true"
"null","<div style=""font-size:60px;"">+</div>","null","html-keyboard-response","214","379515","0.0-6.0-0.104","JOSC","2","m","rechts","24","","fixation","","","",""
"754","img/L120_180.png","70","image-keyboard-response","215","380270","0.0-6.0-1.104","JOSC","2","m","rechts","24","","","self","f","120","true"
"null","<div style=""font-size:60px;"">+</div>","null","html-keyboard-response","216","380722","0.0-6.0-0.105","JOSC","2","m","rechts","24","","fixation","","","",""
"628","img/30_60.png","74","image-keyboard-response","217","381351","0.0-6.0-1.105","JOSC","2","m","rechts","24","","","self","j","30","true"
"null","<div style=""font-size:60px;"">+</div>","null","html-keyboard-response","218","381853","0.0-6.0-0.106","JOSC","2","m","rechts","24","","fixation","","","",""
"608","img/90_30.png","74","image-keyboard-response","219","382463","0.0-6.0-1.106","JOSC","2","m","rechts","24","","","self","j","90","true"
"null","<div style=""font-size:60px;"">+</div>","null","html-keyboard-response","220","382914","0.0-6.0-0.107","JOSC","2","m","rechts","24","","fixation","","","",""
"820","img/150_180.png","74","image-keyboard-response","221","383735","0.0-6.0-1.107","JOSC","2","m","rechts","24","","","self","j","150","true"
"null","<div style=""font-size:60px;"">+</div>","null","html-keyboard-response","222","384037","0.0-6.0-0.108","JOSC","2","m","rechts","24","","fixation","","","",""
"977","img/30_240.png","70","image-keyboard-response","223","385014","0.0-6.0-1.108","JOSC","2","m","rechts","24","","","self","f","30","true"
"null","<div style=""font-size:60px;"">+</div>","null","html-keyboard-response","224","385466","0.0-6.0-0.109","JOSC","2","m","rechts","24","","fixation","","","",""
"904","img/150_270.png","74","image-keyboard-response","225","386370","0.0-6.0-1.109","JOSC","2","m","rechts","24","","","self","j","150","true"
"null","<div style=""font-size:60px;"">+</div>","null","html-keyboard-response","226","386872","0.0-6.0-0.110","JOSC","2","m","rechts","24","","fixation","","","",""
"596","img/0_150.png","74","image-keyboard-response","227","387469","0.0-6.0-1.110","JOSC","2","m","rechts","24","","","self","j","0","true"
"null","<div style=""font-size:60px;"">+</div>","null","html-keyboard-response","228","387870","0.0-6.0-0.111","JOSC","2","m","rechts","24","","fixation","","","",""
"662","img/60_30.png","74","image-keyboard-response","229","388533","0.0-6.0-1.111","JOSC","2","m","rechts","24","","","self","j","60","true"
"null","<div style=""font-size:60px;"">+</div>","null","html-keyboard-response","230","388835","0.0-6.0-0.112","JOSC","2","m","rechts","24","","fixation","","","",""
"610","img/0_210.png","70","image-keyboard-response","231","389445","0.0-6.0-1.112","JOSC","2","m","rechts","24","","","self","f","0","true"
"null","<div style=""font-size:60px;"">+</div>","null","html-keyboard-response","232","389747","0.0-6.0-0.113","JOSC","2","m","rechts","24","","fixation","","","",""
"566","img/150_120.png","74","image-keyboard-response","233","390313","0.0-6.0-1.113","JOSC","2","m","rechts","24","","","self","f","150","false"
"null","<div style=""font-size:60px;"">+</div>","null","html-keyboard-response","234","390765","0.0-6.0-0.114","JOSC","2","m","rechts","24","","fixation","","","",""
"1007","img/90_150.png","70","image-keyboard-response","235","391773","0.0-6.0-1.114","JOSC","2","m","rechts","24","","","self","f","90","true"
"null","<div style=""font-size:60px;"">+</div>","null","html-keyboard-response","236","392075","0.0-6.0-0.115","JOSC","2","m","rechts","24","","fixation","","","",""
"818","img/L150_180.png","70","image-keyboard-response","237","392893","0.0-6.0-1.115","JOSC","2","m","rechts","24","","","self","f","150","true"
"null","<div style=""font-size:60px;"">+</div>","null","html-keyboard-response","238","393295","0.0-6.0-0.116","JOSC","2","m","rechts","24","","fixation","","","",""
"691","img/L90_180.png","70","image-keyboard-response","239","393987","0.0-6.0-1.116","JOSC","2","m","rechts","24","","","self","f","90","true"
"null","<div style=""font-size:60px;"">+</div>","null","html-keyboard-response","240","394338","0.0-6.0-0.117","JOSC","2","m","rechts","24","","fixation","","","",""
"960","img/150_60.png","70","image-keyboard-response","241","395299","0.0-6.0-1.117","JOSC","2","m","rechts","24","","","self","f","150","true"
"null","<div style=""font-size:60px;"">+</div>","null","html-keyboard-response","242","395750","0.0-6.0-0.118","JOSC","2","m","rechts","24","","fixation","","","",""
"776","img/L30_180.png","70","image-keyboard-response","243","396527","0.0-6.0-1.118","JOSC","2","m","rechts","24","","","self","f","30","true"
"null","<div style=""font-size:60px;"">+</div>","null","html-keyboard-response","244","396879","0.0-6.0-0.119","JOSC","2","m","rechts","24","","fixation","","","",""
"1213","img/90_300.png","70","image-keyboard-response","245","398092","0.0-6.0-1.119","JOSC","2","m","rechts","24","","","self","f","90","true"
"null","<div style=""font-size:60px;"">+</div>","null","html-keyboard-response","246","398594","0.0-6.0-0.120","JOSC","2","m","rechts","24","","fixation","","","",""
"1253","img/30_120.png","74","image-keyboard-response","247","399847","0.0-6.0-1.120","JOSC","2","m","rechts","24","","","self","j","30","true"
"null","<div style=""font-size:60px;"">+</div>","null","html-keyboard-response","248","400349","0.0-6.0-0.121","JOSC","2","m","rechts","24","","fixation","","","",""
"810","img/30_180.png","74","image-keyboard-response","249","401160","0.0-6.0-1.121","JOSC","2","m","rechts","24","","","self","j","30","true"
"null","<div style=""font-size:60px;"">+</div>","null","html-keyboard-response","250","401512","0.0-6.0-0.122","JOSC","2","m","rechts","24","","fixation","","","",""
"874","img/120_330.png","70","image-keyboard-response","251","402386","0.0-6.0-1.122","JOSC","2","m","rechts","24","","","self","f","120","true"
"null","<div style=""font-size:60px;"">+</div>","null","html-keyboard-response","252","402788","0.0-6.0-0.123","JOSC","2","m","rechts","24","","fixation","","","",""
"1006","img/90_180.png","74","image-keyboard-response","253","403794","0.0-6.0-1.123","JOSC","2","m","rechts","24","","","self","j","90","true"
"null","<div style=""font-size:60px;"">+</div>","null","html-keyboard-response","254","404295","0.0-6.0-0.124","JOSC","2","m","rechts","24","","fixation","","","",""
"1009","img/120_30.png","74","image-keyboard-response","255","405306","0.0-6.0-1.124","JOSC","2","m","rechts","24","","","self","j","120","true"
"null","<div style=""font-size:60px;"">+</div>","null","html-keyboard-response","256","405707","0.0-6.0-0.125","JOSC","2","m","rechts","24","","fixation","","","",""
"1062","img/60_210.png","74","image-keyboard-response","257","406770","0.0-6.0-1.125","JOSC","2","m","rechts","24","","","self","j","60","true"
"null","<div style=""font-size:60px;"">+</div>","null","html-keyboard-response","258","407272","0.0-6.0-0.126","JOSC","2","m","rechts","24","","fixation","","","",""
"753","img/60_150.png","70","image-keyboard-response","259","408025","0.0-6.0-1.126","JOSC","2","m","rechts","24","","","self","f","60","true"
"null","<div style=""font-size:60px;"">+</div>","null","html-keyboard-response","260","408477","0.0-6.0-0.127","JOSC","2","m","rechts","24","","fixation","","","",""
"855","img/0_240.png","70","image-keyboard-response","261","409332","0.0-6.0-1.127","JOSC","2","m","rechts","24","","","self","f","0","true"
"null","<div style=""font-size:60px;"">+</div>","null","html-keyboard-response","262","409784","0.0-6.0-0.128","JOSC","2","m","rechts","24","","fixation","","","",""
"700","img/150_90.png","70","image-keyboard-response","263","410484","0.0-6.0-1.128","JOSC","2","m","rechts","24","","","self","f","150","true"
"null","<div style=""font-size:60px;"">+</div>","null","html-keyboard-response","264","410885","0.0-6.0-0.129","JOSC","2","m","rechts","24","","fixation","","","",""
"847","img/90_120.png","70","image-keyboard-response","265","411733","0.0-6.0-1.129","JOSC","2","m","rechts","24","","","self","f","90","true"
"null","<div style=""font-size:60px;"">+</div>","null","html-keyboard-response","266","412035","0.0-6.0-0.130","JOSC","2","m","rechts","24","","fixation","","","",""
"890","img/60_90.png","74","image-keyboard-response","267","412927","0.0-6.0-1.130","JOSC","2","m","rechts","24","","","self","j","60","true"
"null","<div style=""font-size:60px;"">+</div>","null","html-keyboard-response","268","413328","0.0-6.0-0.131","JOSC","2","m","rechts","24","","fixation","","","",""
"821","img/60_180.png","74","image-keyboard-response","269","414151","0.0-6.0-1.131","JOSC","2","m","rechts","24","","","self","j","60","true"
"null","<div style=""font-size:60px;"">+</div>","null","html-keyboard-response","270","414603","0.0-6.0-0.132","JOSC","2","m","rechts","24","","fixation","","","",""
"934","img/0_60.png","74","image-keyboard-response","271","415538","0.0-6.0-1.132","JOSC","2","m","rechts","24","","","self","j","0","true"
"null","<div style=""font-size:60px;"">+</div>","null","html-keyboard-response","272","415889","0.0-6.0-0.133","JOSC","2","m","rechts","24","","fixation","","","",""
"754","img/L60_180.png","70","image-keyboard-response","273","416644","0.0-6.0-1.133","JOSC","2","m","rechts","24","","","self","f","60","true"
"null","<div style=""font-size:60px;"">+</div>","null","html-keyboard-response","274","417045","0.0-6.0-0.134","JOSC","2","m","rechts","24","","fixation","","","",""
"775","img/0_90.png","74","image-keyboard-response","275","417822","0.0-6.0-1.134","JOSC","2","m","rechts","24","","","self","j","0","true"
"null","<div style=""font-size:60px;"">+</div>","null","html-keyboard-response","276","418173","0.0-6.0-0.135","JOSC","2","m","rechts","24","","fixation","","","",""
"826","img/30_270.png","70","image-keyboard-response","277","419000","0.0-6.0-1.135","JOSC","2","m","rechts","24","","","self","f","30","true"
"null","<div style=""font-size:60px;"">+</div>","null","html-keyboard-response","278","419451","0.0-6.0-0.136","JOSC","2","m","rechts","24","","fixation","","","",""
"741","img/0_270.png","70","image-keyboard-response","279","420194","0.0-6.0-1.136","JOSC","2","m","rechts","24","","","self","f","0","true"
"null","<div style=""font-size:60px;"">+</div>","null","html-keyboard-response","280","420695","0.0-6.0-0.137","JOSC","2","m","rechts","24","","fixation","","","",""
"763","img/120_270.png","74","image-keyboard-response","281","421460","0.0-6.0-1.137","JOSC","2","m","rechts","24","","","self","j","120","true"
"null","<div style=""font-size:60px;"">+</div>","null","html-keyboard-response","282","421811","0.0-6.0-0.138","JOSC","2","m","rechts","24","","fixation","","","",""
"1132","img/60_330.png","70","image-keyboard-response","283","422944","0.0-6.0-1.138","JOSC","2","m","rechts","24","","","self","f","60","true"
"null","<div style=""font-size:60px;"">+</div>","null","html-keyboard-response","284","423446","0.0-6.0-0.139","JOSC","2","m","rechts","24","","fixation","","","",""
"884","img/30_90.png","74","image-keyboard-response","285","424332","0.0-6.0-1.139","JOSC","2","m","rechts","24","","","self","j","30","true"
"null","<div style=""font-size:60px;"">+</div>","null","html-keyboard-response","286","424783","0.0-6.0-0.140","JOSC","2","m","rechts","24","","fixation","","","",""
"1010","img/90_60.png","74","image-keyboard-response","287","425794","0.0-6.0-1.140","JOSC","2","m","rechts","24","","","self","j","90","true"
"null","<div style=""font-size:60px;"">+</div>","null","html-keyboard-response","288","426146","0.0-6.0-0.141","JOSC","2","m","rechts","24","","fixation","","","",""
"1002","img/90_210.png","74","image-keyboard-response","289","427150","0.0-6.0-1.141","JOSC","2","m","rechts","24","","","self","j","90","true"
"null","<div style=""font-size:60px;"">+</div>","null","html-keyboard-response","290","427602","0.0-6.0-0.142","JOSC","2","m","rechts","24","","fixation","","","",""
"872","img/120_180.png","74","image-keyboard-response","291","428475","0.0-6.0-1.142","JOSC","2","m","rechts","24","","","self","j","120","true"
"null","<div style=""font-size:60px;"">+</div>","null","html-keyboard-response","292","428826","0.0-6.0-0.143","JOSC","2","m","rechts","24","","fixation","","","",""
"902","img/60_270.png","70","image-keyboard-response","293","429729","0.0-6.0-1.143","JOSC","2","m","rechts","24","","","self","f","60","true"
"null","<div style=""font-size:60px;"">+</div>","null","html-keyboard-response","294","430081","0.0-6.0-0.144","JOSC","2","m","rechts","24","","fixation","","","",""
"779","img/0_120.png","74","image-keyboard-response","295","430861","0.0-6.0-1.144","JOSC","2","m","rechts","24","","","self","j","0","true"
"null","<div style=""font-size:60px;"">+</div>","null","html-keyboard-response","296","431313","0.0-6.0-0.145","JOSC","2","m","rechts","24","","fixation","","","",""
"1399","img/150_240.png","74","image-keyboard-response","297","432713","0.0-6.0-1.145","JOSC","2","m","rechts","24","","","self","j","150","true"
"null","<div style=""font-size:60px;"">+</div>","null","html-keyboard-response","298","433214","0.0-6.0-0.146","JOSC","2","m","rechts","24","","fixation","","","",""
"745","img/30_300.png","70","image-keyboard-response","299","433960","0.0-6.0-1.146","JOSC","2","m","rechts","24","","","self","f","30","true"
"null","<div style=""font-size:60px;"">+</div>","null","html-keyboard-response","300","434462","0.0-6.0-0.147","JOSC","2","m","rechts","24","","fixation","","","",""
"726","img/0_300.png","70","image-keyboard-response","301","435189","0.0-6.0-1.147","JOSC","2","m","rechts","24","","","self","f","0","true"
"null","<div style=""font-size:60px;"">+</div>","null","html-keyboard-response","302","435591","0.0-6.0-0.148","JOSC","2","m","rechts","24","","fixation","","","",""
"608","img/0_330.png","70","image-keyboard-response","303","436200","0.0-6.0-1.148","JOSC","2","m","rechts","24","","","self","f","0","true"
"null","<div style=""font-size:60px;"">+</div>","null","html-keyboard-response","304","436702","0.0-6.0-0.149","JOSC","2","m","rechts","24","","fixation","","","",""
"847","img/120_90.png","70","image-keyboard-response","305","437549","0.0-6.0-1.149","JOSC","2","m","rechts","24","","","self","f","120","true"
"null","<div style=""font-size:60px;"">+</div>","null","html-keyboard-response","306","438051","0.0-6.0-0.150","JOSC","2","m","rechts","24","","fixation","","","",""
"952","img/120_210.png","74","image-keyboard-response","307","439003","0.0-6.0-1.150","JOSC","2","m","rechts","24","","","self","j","120","true"
"null","<div style=""font-size:60px;"">+</div>","null","html-keyboard-response","308","439355","0.0-6.0-0.151","JOSC","2","m","rechts","24","","fixation","","","",""
"888","img/90_330.png","70","image-keyboard-response","309","440244","0.0-6.0-1.151","JOSC","2","m","rechts","24","","","self","f","90","true"
"null","<div style=""font-size:60px;"">+</div>","null","html-keyboard-response","310","440596","0.0-6.0-0.152","JOSC","2","m","rechts","24","","fixation","","","",""
"855","img/0_30.png","74","image-keyboard-response","311","441451","0.0-6.0-1.152","JOSC","2","m","rechts","24","","","self","j","0","true"
"null","<div style=""font-size:60px;"">+</div>","null","html-keyboard-response","312","441803","0.0-6.0-0.153","JOSC","2","m","rechts","24","","fixation","","","",""
"933","img/150_300.png","74","image-keyboard-response","313","442736","0.0-6.0-1.153","JOSC","2","m","rechts","24","","","self","j","150","true"
"null","<div style=""font-size:60px;"">+</div>","null","html-keyboard-response","314","443238","0.0-6.0-0.154","JOSC","2","m","rechts","24","","fixation","","","",""
"772","img/90_240.png","74","image-keyboard-response","315","444010","0.0-6.0-1.154","JOSC","2","m","rechts","24","","","self","j","90","true"
"null","<div style=""font-size:60px;"">+</div>","null","html-keyboard-response","316","444412","0.0-6.0-0.155","JOSC","2","m","rechts","24","","fixation","","","",""
"705","img/120_150.png","70","image-keyboard-response","317","445118","0.0-6.0-1.155","JOSC","2","m","rechts","24","","","self","f","120","true"
"null","<div style=""font-size:60px;"">+</div>","null","html-keyboard-response","318","445619","0.0-6.0-0.156","JOSC","2","m","rechts","24","","fixation","","","",""
"766","img/L60_180.png","70","image-keyboard-response","319","446386","0.0-6.0-1.156","JOSC","2","m","rechts","24","","","self","f","60","true"
"null","<div style=""font-size:60px;"">+</div>","null","html-keyboard-response","320","446788","0.0-6.0-0.157","JOSC","2","m","rechts","24","","fixation","","","",""
"905","img/0_270.png","70","image-keyboard-response","321","447693","0.0-6.0-1.157","JOSC","2","m","rechts","24","","","self","f","0","true"
"null","<div style=""font-size:60px;"">+</div>","null","html-keyboard-response","322","447994","0.0-6.0-0.158","JOSC","2","m","rechts","24","","fixation","","","",""
"730","img/30_180.png","74","image-keyboard-response","323","448725","0.0-6.0-1.158","JOSC","2","m","rechts","24","","","self","j","30","true"
"null","<div style=""font-size:60px;"">+</div>","null","html-keyboard-response","324","449126","0.0-6.0-0.159","JOSC","2","m","rechts","24","","fixation","","","",""
"910","img/120_330.png","70","image-keyboard-response","325","450038","0.0-6.0-1.159","JOSC","2","m","rechts","24","","","self","f","120","true"
"null","<div style=""font-size:60px;"">+</div>","null","html-keyboard-response","326","450339","0.0-6.0-0.160","JOSC","2","m","rechts","24","","fixation","","","",""
"811","img/30_90.png","74","image-keyboard-response","327","451151","0.0-6.0-1.160","JOSC","2","m","rechts","24","","","self","j","30","true"
"null","<div style=""font-size:60px;"">+</div>","null","html-keyboard-response","328","451653","0.0-6.0-0.161","JOSC","2","m","rechts","24","","fixation","","","",""
"729","img/60_330.png","70","image-keyboard-response","329","452383","0.0-6.0-1.161","JOSC","2","m","rechts","24","","","self","f","60","true"
"null","<div style=""font-size:60px;"">+</div>","null","html-keyboard-response","330","452684","0.0-6.0-0.162","JOSC","2","m","rechts","24","","fixation","","","",""
"694","img/90_330.png","70","image-keyboard-response","331","453379","0.0-6.0-1.162","JOSC","2","m","rechts","24","","","self","f","90","true"
"null","<div style=""font-size:60px;"">+</div>","null","html-keyboard-response","332","453730","0.0-6.0-0.163","JOSC","2","m","rechts","24","","fixation","","","",""
"806","img/0_210.png","70","image-keyboard-response","333","454538","0.0-6.0-1.163","JOSC","2","m","rechts","24","","","self","f","0","true"
"null","<div style=""font-size:60px;"">+</div>","null","html-keyboard-response","334","454838","0.0-6.0-0.164","JOSC","2","m","rechts","24","","fixation","","","",""
"826","img/30_120.png","74","image-keyboard-response","335","455665","0.0-6.0-1.164","JOSC","2","m","rechts","24","","","self","j","30","true"
"null","<div style=""font-size:60px;"">+</div>","null","html-keyboard-response","336","456166","0.0-6.0-0.165","JOSC","2","m","rechts","24","","fixation","","","",""
"713","img/0_60.png","74","image-keyboard-response","337","456880","0.0-6.0-1.165","JOSC","2","m","rechts","24","","","self","j","0","true"
"null","<div style=""font-size:60px;"">+</div>","null","html-keyboard-response","338","457381","0.0-6.0-0.166","JOSC","2","m","rechts","24","","fixation","","","",""
"748","img/150_240.png","74","image-keyboard-response","339","458130","0.0-6.0-1.166","JOSC","2","m","rechts","24","","","self","j","150","true"
"null","<div style=""font-size:60px;"">+</div>","null","html-keyboard-response","340","458431","0.0-6.0-0.167","JOSC","2","m","rechts","24","","fixation","","","",""
"722","img/150_180.png","74","image-keyboard-response","341","459154","0.0-6.0-1.167","JOSC","2","m","rechts","24","","","self","j","150","true"
"null","<div style=""font-size:60px;"">+</div>","null","html-keyboard-response","342","459606","0.0-6.0-0.168","JOSC","2","m","rechts","24","","fixation","","","",""
"1127","img/90_300.png","70","image-keyboard-response","343","460733","0.0-6.0-1.168","JOSC","2","m","rechts","24","","","self","f","90","true"
"null","<div style=""font-size:60px;"">+</div>","null","html-keyboard-response","344","461134","0.0-6.0-0.169","JOSC","2","m","rechts","24","","fixation","","","",""
"668","img/L120_180.png","70","image-keyboard-response","345","461803","0.0-6.0-1.169","JOSC","2","m","rechts","24","","","self","f","120","true"
"null","<div style=""font-size:60px;"">+</div>","null","html-keyboard-response","346","462305","0.0-6.0-0.170","JOSC","2","m","rechts","24","","fixation","","","",""
"723","img/120_30.png","74","image-keyboard-response","347","463028","0.0-6.0-1.170","JOSC","2","m","rechts","24","","","self","j","120","true"
"null","<div style=""font-size:60px;"">+</div>","null","html-keyboard-response","348","463530","0.0-6.0-0.171","JOSC","2","m","rechts","24","","fixation","","","",""
"917","img/30_60.png","74","image-keyboard-response","349","464447","0.0-6.0-1.171","JOSC","2","m","rechts","24","","","self","j","30","true"
"null","<div style=""font-size:60px;"">+</div>","null","html-keyboard-response","350","464798","0.0-6.0-0.172","JOSC","2","m","rechts","24","","fixation","","","",""
"835","img/120_180.png","74","image-keyboard-response","351","465635","0.0-6.0-1.172","JOSC","2","m","rechts","24","","","self","j","120","true"
"null","<div style=""font-size:60px;"">+</div>","null","html-keyboard-response","352","465986","0.0-6.0-0.173","JOSC","2","m","rechts","24","","fixation","","","",""
"791","img/90_150.png","70","image-keyboard-response","353","466778","0.0-6.0-1.173","JOSC","2","m","rechts","24","","","self","f","90","true"
"null","<div style=""font-size:60px;"">+</div>","null","html-keyboard-response","354","467279","0.0-6.0-0.174","JOSC","2","m","rechts","24","","fixation","","","",""
"888","img/0_120.png","74","image-keyboard-response","355","468169","0.0-6.0-1.174","JOSC","2","m","rechts","24","","","self","j","0","true"
"null","<div style=""font-size:60px;"">+</div>","null","html-keyboard-response","356","468569","0.0-6.0-0.175","JOSC","2","m","rechts","24","","fixation","","","",""
"816","img/90_210.png","74","image-keyboard-response","357","469387","0.0-6.0-1.175","JOSC","2","m","rechts","24","","","self","j","90","true"
"null","<div style=""font-size:60px;"">+</div>","null","html-keyboard-response","358","469787","0.0-6.0-0.176","JOSC","2","m","rechts","24","","fixation","","","",""
"822","img/30_270.png","70","image-keyboard-response","359","470610","0.0-6.0-1.176","JOSC","2","m","rechts","24","","","self","f","30","true"
"null","<div style=""font-size:60px;"">+</div>","null","html-keyboard-response","360","470912","0.0-6.0-0.177","JOSC","2","m","rechts","24","","fixation","","","",""
"897","img/L150_180.png","70","image-keyboard-response","361","471810","0.0-6.0-1.177","JOSC","2","m","rechts","24","","","self","f","150","true"
"null","<div style=""font-size:60px;"">+</div>","null","html-keyboard-response","362","472212","0.0-6.0-0.178","JOSC","2","m","rechts","24","","fixation","","","",""
"1817","img/150_270.png","74","image-keyboard-response","363","474030","0.0-6.0-1.178","JOSC","2","m","rechts","24","","","self","j","150","true"
"null","<div style=""font-size:60px;"">+</div>","null","html-keyboard-response","364","474332","0.0-6.0-0.179","JOSC","2","m","rechts","24","","fixation","","","",""
"826","img/90_30.png","74","image-keyboard-response","365","475159","0.0-6.0-1.179","JOSC","2","m","rechts","24","","","self","j","90","true"
"null","<div style=""font-size:60px;"">+</div>","null","html-keyboard-response","366","475561","0.0-6.0-0.180","JOSC","2","m","rechts","24","","fixation","","","",""
"697","img/120_150.png","70","image-keyboard-response","367","476259","0.0-6.0-1.180","JOSC","2","m","rechts","24","","","self","f","120","true"
"null","<div style=""font-size:60px;"">+</div>","null","html-keyboard-response","368","476710","0.0-6.0-0.181","JOSC","2","m","rechts","24","","fixation","","","",""
"680","img/0_150.png","74","image-keyboard-response","369","477391","0.0-6.0-1.181","JOSC","2","m","rechts","24","","","self","j","0","true"
"null","<div style=""font-size:60px;"">+</div>","null","html-keyboard-response","370","477743","0.0-6.0-0.182","JOSC","2","m","rechts","24","","fixation","","","",""
"736","img/120_210.png","70","image-keyboard-response","371","478480","0.0-6.0-1.182","JOSC","2","m","rechts","24","","","self","j","120","false"
"null","<div style=""font-size:60px;"">+</div>","null","html-keyboard-response","372","478782","0.0-6.0-0.183","JOSC","2","m","rechts","24","","fixation","","","",""
"973","img/120_90.png","70","image-keyboard-response","373","479756","0.0-6.0-1.183","JOSC","2","m","rechts","24","","","self","f","120","true"
"null","<div style=""font-size:60px;"">+</div>","null","html-keyboard-response","374","480258","0.0-6.0-0.184","JOSC","2","m","rechts","24","","fixation","","","",""
"1069","img/60_180.png","74","image-keyboard-response","375","481328","0.0-6.0-1.184","JOSC","2","m","rechts","24","","","self","j","60","true"
"null","<div style=""font-size:60px;"">+</div>","null","html-keyboard-response","376","481629","0.0-6.0-0.185","JOSC","2","m","rechts","24","","fixation","","","",""
"887","img/90_240.png","74","image-keyboard-response","377","482517","0.0-6.0-1.185","JOSC","2","m","rechts","24","","","self","j","90","true"
"null","<div style=""font-size:60px;"">+</div>","null","html-keyboard-response","378","482919","0.0-6.0-0.186","JOSC","2","m","rechts","24","","fixation","","","",""
"995","img/90_60.png","74","image-keyboard-response","379","483915","0.0-6.0-1.186","JOSC","2","m","rechts","24","","","self","j","90","true"
"null","<div style=""font-size:60px;"">+</div>","null","html-keyboard-response","380","484366","0.0-6.0-0.187","JOSC","2","m","rechts","24","","fixation","","","",""
"922","img/L30_180.png","70","image-keyboard-response","381","485289","0.0-6.0-1.187","JOSC","2","m","rechts","24","","","self","f","30","true"
"null","<div style=""font-size:60px;"">+</div>","null","html-keyboard-response","382","485691","0.0-6.0-0.188","JOSC","2","m","rechts","24","","fixation","","","",""
"876","img/150_90.png","70","image-keyboard-response","383","486568","0.0-6.0-1.188","JOSC","2","m","rechts","24","","","self","f","150","true"
"null","<div style=""font-size:60px;"">+</div>","null","html-keyboard-response","384","486920","0.0-6.0-0.189","JOSC","2","m","rechts","24","","fixation","","","",""
"833","img/0_240.png","70","image-keyboard-response","385","487754","0.0-6.0-1.189","JOSC","2","m","rechts","24","","","self","f","0","true"
"null","<div style=""font-size:60px;"">+</div>","null","html-keyboard-response","386","488106","0.0-6.0-0.190","JOSC","2","m","rechts","24","","fixation","","","",""
"837","img/60_30.png","74","image-keyboard-response","387","488944","0.0-6.0-1.190","JOSC","2","m","rechts","24","","","self","j","60","true"
"null","<div style=""font-size:60px;"">+</div>","null","html-keyboard-response","388","489246","0.0-6.0-0.191","JOSC","2","m","rechts","24","","fixation","","","",""
"1075","img/30_240.png","70","image-keyboard-response","389","490322","0.0-6.0-1.191","JOSC","2","m","rechts","24","","","self","f","30","true"
"null","<div style=""font-size:60px;"">+</div>","null","html-keyboard-response","390","490623","0.0-6.0-0.192","JOSC","2","m","rechts","24","","fixation","","","",""
"951","img/60_90.png","74","image-keyboard-response","391","491575","0.0-6.0-1.192","JOSC","2","m","rechts","24","","","self","j","60","true"
"null","<div style=""font-size:60px;"">+</div>","null","html-keyboard-response","392","491927","0.0-6.0-0.193","JOSC","2","m","rechts","24","","fixation","","","",""
"1082","img/30_300.png","70","image-keyboard-response","393","493010","0.0-6.0-1.193","JOSC","2","m","rechts","24","","","self","f","30","true"
"null","<div style=""font-size:60px;"">+</div>","null","html-keyboard-response","394","493512","0.0-6.0-0.194","JOSC","2","m","rechts","24","","fixation","","","",""
"742","img/60_210.png","74","image-keyboard-response","395","494255","0.0-6.0-1.194","JOSC","2","m","rechts","24","","","self","j","60","true"
"null","<div style=""font-size:60px;"">+</div>","null","html-keyboard-response","396","494757","0.0-6.0-0.195","JOSC","2","m","rechts","24","","fixation","","","",""
"768","img/0_30.png","74","image-keyboard-response","397","495526","0.0-6.0-1.195","JOSC","2","m","rechts","24","","","self","j","0","true"
"null","<div style=""font-size:60px;"">+</div>","null","html-keyboard-response","398","496027","0.0-6.0-0.196","JOSC","2","m","rechts","24","","fixation","","","",""
"759","img/150_300.png","74","image-keyboard-response","399","496787","0.0-6.0-1.196","JOSC","2","m","rechts","24","","","self","j","150","true"
"null","<div style=""font-size:60px;"">+</div>","null","html-keyboard-response","400","497188","0.0-6.0-0.197","JOSC","2","m","rechts","24","","fixation","","","",""
"1099","img/60_270.png","70","image-keyboard-response","401","498287","0.0-6.0-1.197","JOSC","2","m","rechts","24","","","self","f","60","true"
"null","<div style=""font-size:60px;"">+</div>","null","html-keyboard-response","402","498787","0.0-6.0-0.198","JOSC","2","m","rechts","24","","fixation","","","",""
"871","img/L90_180.png","70","image-keyboard-response","403","499659","0.0-6.0-1.198","JOSC","2","m","rechts","24","","","self","f","90","true"
"null","<div style=""font-size:60px;"">+</div>","null","html-keyboard-response","404","500111","0.0-6.0-0.199","JOSC","2","m","rechts","24","","fixation","","","",""
"1145","img/150_60.png","70","image-keyboard-response","405","501257","0.0-6.0-1.199","JOSC","2","m","rechts","24","","","self","f","150","true"
"null","<div style=""font-size:60px;"">+</div>","null","html-keyboard-response","406","501659","0.0-6.0-0.200","JOSC","2","m","rechts","24","","fixation","","","",""
"815","img/120_270.png","74","image-keyboard-response","407","502474","0.0-6.0-1.200","JOSC","2","m","rechts","24","","","self","j","120","true"
"null","<div style=""font-size:60px;"">+</div>","null","html-keyboard-response","408","502876","0.0-6.0-0.201","JOSC","2","m","rechts","24","","fixation","","","",""
"783","img/60_150.png","70","image-keyboard-response","409","503659","0.0-6.0-1.201","JOSC","2","m","rechts","24","","","self","f","60","true"
"null","<div style=""font-size:60px;"">+</div>","null","html-keyboard-response","410","504060","0.0-6.0-0.202","JOSC","2","m","rechts","24","","fixation","","","",""
"823","img/90_180.png","74","image-keyboard-response","411","504884","0.0-6.0-1.202","JOSC","2","m","rechts","24","","","self","j","90","true"
"null","<div style=""font-size:60px;"">+</div>","null","html-keyboard-response","412","505235","0.0-6.0-0.203","JOSC","2","m","rechts","24","","fixation","","","",""
"786","img/0_330.png","70","image-keyboard-response","413","506023","0.0-6.0-1.203","JOSC","2","m","rechts","24","","","self","f","0","true"
"null","<div style=""font-size:60px;"">+</div>","null","html-keyboard-response","414","506474","0.0-6.0-0.204","JOSC","2","m","rechts","24","","fixation","","","",""
"789","img/150_120.png","70","image-keyboard-response","415","507264","0.0-6.0-1.204","JOSC","2","m","rechts","24","","","self","f","150","true"
"null","<div style=""font-size:60px;"">+</div>","null","html-keyboard-response","416","507715","0.0-6.0-0.205","JOSC","2","m","rechts","24","","fixation","","","",""
"674","img/0_300.png","70","image-keyboard-response","417","508390","0.0-6.0-1.205","JOSC","2","m","rechts","24","","","self","f","0","true"
"null","<div style=""font-size:60px;"">+</div>","null","html-keyboard-response","418","508740","0.0-6.0-0.206","JOSC","2","m","rechts","24","","fixation","","","",""
"746","img/90_120.png","70","image-keyboard-response","419","509487","0.0-6.0-1.206","JOSC","2","m","rechts","24","","","self","f","90","true"
"null","<div style=""font-size:60px;"">+</div>","null","html-keyboard-response","420","509989","0.0-6.0-0.207","JOSC","2","m","rechts","24","","fixation","","","",""
"825","img/0_90.png","74","image-keyboard-response","421","510814","0.0-6.0-1.207","JOSC","2","m","rechts","24","","","self","j","0","true"
"5847","<p>Du hast in 95% der Versuche korrekt entschieden.</p><p>Deine durchschnittliche Reaktionszeit war  875ms.</p><p>Dr&uuml;cke eine beliebige Taste, um die Session zu beenden. Vielen Dank!</p>","32","html-keyboard-response","422","516662","0.0-7.0","JOSC","2","m","rechts","24","","","","","",""
