"rt","stimulus","key_press","trial_type","trial_index","time_elapsed","internal_node_id","subject","session","sex","handedness","age","responses","test_part","condition","correct_response","angle","correct"
"1632","<p>Mental Rotation Experiment.</p> <p>Dr&uuml;cke eine beliebige Taste, um anzufangen.</p>","71","html-keyboard-response","0","1634","0.0-0.0","JOSC","3","m","rechts","24","","","","","",""
"3548","","","survey-text","1","5184","0.0-1.0","JOSC","3","m","rechts","24","{""Q0"":""JOSC""}","","","","",""
"2538","","","survey-text","2","7722","0.0-2.0","JOSC","3","m","rechts","24","{""Q0"":""3""}","","","","",""
"4445","","","survey-multi-choice","3","12169","0.0-3.0","JOSC","3","m","rechts","24","{""Q0"":""m"",""Q1"":""rechts""}","","","","",""
"3256","","","survey-text","4","15427","0.0-4.0","JOSC","3","m","rechts","24","{""Q0"":""24""}","","","","",""
"469281","<p> Stell dir vor, dass du vor einem runden Tisch stehst, auf dem sich ein blauer Ball am Tischrand befindet. Entlang des Tischrands ist jeweils ein verschieden langer Pfeil. Nun bewegst du dich entlang dieses Pfeils bis an seine Spitze. Wenn du am Ende des Pfeils angekommen bist, schau zur Tischmitte. </p> <img src='img/90_180.png'></img> <br> <p>Entscheide dann, ob der Ball von deiner neuen (vorgestellten) Position links oder rechts von dir liegt.</p> <p>Dr&uuml;cke die <strong>'f'</strong>-Taste f&uuml;r links, die <strong>'j'</strong>-Taste f&uuml;r rechts.</p> <br><p> Das Bild wird jeweils 1 Sekunde lang pr&auml;sentiert. Du hast 3 Sekunden Zeit eine Entscheidung zu treffen.</p>","74","html-keyboard-response","5","484711","0.0-5.0","JOSC","3","m","rechts","24","","","","","",""
"null","<div style=""font-size:60px;"">+</div>","null","html-keyboard-response","6","486114","0.0-6.0-0.0","JOSC","3","m","rechts","24","","fixation","","","",""
"1401","img/L60_180.png","70","image-keyboard-response","7","487517","0.0-6.0-1.0","JOSC","3","m","rechts","24","","","self","f","60","true"
"null","<div style=""font-size:60px;"">+</div>","null","html-keyboard-response","8","488018","0.0-6.0-0.1","JOSC","3","m","rechts","24","","fixation","","","",""
"865","img/60_150.png","70","image-keyboard-response","9","488885","0.0-6.0-1.1","JOSC","3","m","rechts","24","","","self","f","60","true"
"null","<div style=""font-size:60px;"">+</div>","null","html-keyboard-response","10","489336","0.0-6.0-0.2","JOSC","3","m","rechts","24","","fixation","","","",""
"800","img/L120_180.png","70","image-keyboard-response","11","490137","0.0-6.0-1.2","JOSC","3","m","rechts","24","","","self","f","120","true"
"null","<div style=""font-size:60px;"">+</div>","null","html-keyboard-response","12","490539","0.0-6.0-0.3","JOSC","3","m","rechts","24","","fixation","","","",""
"907","img/30_240.png","70","image-keyboard-response","13","491447","0.0-6.0-1.3","JOSC","3","m","rechts","24","","","self","f","30","true"
"null","<div style=""font-size:60px;"">+</div>","null","html-keyboard-response","14","491949","0.0-6.0-0.4","JOSC","3","m","rechts","24","","fixation","","","",""
"788","img/L30_180.png","70","image-keyboard-response","15","492739","0.0-6.0-1.4","JOSC","3","m","rechts","24","","","self","f","30","true"
"null","<div style=""font-size:60px;"">+</div>","null","html-keyboard-response","16","493140","0.0-6.0-0.5","JOSC","3","m","rechts","24","","fixation","","","",""
"752","img/0_330.png","70","image-keyboard-response","17","493893","0.0-6.0-1.5","JOSC","3","m","rechts","24","","","self","f","0","true"
"null","<div style=""font-size:60px;"">+</div>","null","html-keyboard-response","18","494244","0.0-6.0-0.6","JOSC","3","m","rechts","24","","fixation","","","",""
"796","img/60_180.png","74","image-keyboard-response","19","495041","0.0-6.0-1.6","JOSC","3","m","rechts","24","","","self","j","60","true"
"null","<div style=""font-size:60px;"">+</div>","null","html-keyboard-response","20","495443","0.0-6.0-0.7","JOSC","3","m","rechts","24","","fixation","","","",""
"822","img/150_240.png","74","image-keyboard-response","21","496267","0.0-6.0-1.7","JOSC","3","m","rechts","24","","","self","j","150","true"
"null","<div style=""font-size:60px;"">+</div>","null","html-keyboard-response","22","496618","0.0-6.0-0.8","JOSC","3","m","rechts","24","","fixation","","","",""
"870","img/90_60.png","74","image-keyboard-response","23","497488","0.0-6.0-1.8","JOSC","3","m","rechts","24","","","self","j","90","true"
"null","<div style=""font-size:60px;"">+</div>","null","html-keyboard-response","24","497790","0.0-6.0-0.9","JOSC","3","m","rechts","24","","fixation","","","",""
"739","img/0_90.png","74","image-keyboard-response","25","498531","0.0-6.0-1.9","JOSC","3","m","rechts","24","","","self","j","0","true"
"null","<div style=""font-size:60px;"">+</div>","null","html-keyboard-response","26","499032","0.0-6.0-0.10","JOSC","3","m","rechts","24","","fixation","","","",""
"775","img/90_180.png","74","image-keyboard-response","27","499808","0.0-6.0-1.10","JOSC","3","m","rechts","24","","","self","j","90","true"
"null","<div style=""font-size:60px;"">+</div>","null","html-keyboard-response","28","500260","0.0-6.0-0.11","JOSC","3","m","rechts","24","","fixation","","","",""
"872","img/90_30.png","74","image-keyboard-response","29","501132","0.0-6.0-1.11","JOSC","3","m","rechts","24","","","self","j","90","true"
"null","<div style=""font-size:60px;"">+</div>","null","html-keyboard-response","30","501484","0.0-6.0-0.12","JOSC","3","m","rechts","24","","fixation","","","",""
"744","img/90_330.png","70","image-keyboard-response","31","502229","0.0-6.0-1.12","JOSC","3","m","rechts","24","","","self","f","90","true"
"null","<div style=""font-size:60px;"">+</div>","null","html-keyboard-response","32","502681","0.0-6.0-0.13","JOSC","3","m","rechts","24","","fixation","","","",""
"789","img/30_90.png","74","image-keyboard-response","33","503471","0.0-6.0-1.13","JOSC","3","m","rechts","24","","","self","j","30","true"
"null","<div style=""font-size:60px;"">+</div>","null","html-keyboard-response","34","503922","0.0-6.0-0.14","JOSC","3","m","rechts","24","","fixation","","","",""
"701","img/30_180.png","74","image-keyboard-response","35","504624","0.0-6.0-1.14","JOSC","3","m","rechts","24","","","self","j","30","true"
"null","<div style=""font-size:60px;"">+</div>","null","html-keyboard-response","36","504926","0.0-6.0-0.15","JOSC","3","m","rechts","24","","fixation","","","",""
"714","img/150_120.png","70","image-keyboard-response","37","505641","0.0-6.0-1.15","JOSC","3","m","rechts","24","","","self","f","150","true"
"null","<div style=""font-size:60px;"">+</div>","null","html-keyboard-response","38","506093","0.0-6.0-0.16","JOSC","3","m","rechts","24","","fixation","","","",""
"649","img/0_150.png","74","image-keyboard-response","39","506744","0.0-6.0-1.16","JOSC","3","m","rechts","24","","","self","j","0","true"
"null","<div style=""font-size:60px;"">+</div>","null","html-keyboard-response","40","507245","0.0-6.0-0.17","JOSC","3","m","rechts","24","","fixation","","","",""
"724","img/60_330.png","70","image-keyboard-response","41","507970","0.0-6.0-1.17","JOSC","3","m","rechts","24","","","self","f","60","true"
"null","<div style=""font-size:60px;"">+</div>","null","html-keyboard-response","42","508271","0.0-6.0-0.18","JOSC","3","m","rechts","24","","fixation","","","",""
"874","img/30_120.png","74","image-keyboard-response","43","509146","0.0-6.0-1.18","JOSC","3","m","rechts","24","","","self","j","30","true"
"null","<div style=""font-size:60px;"">+</div>","null","html-keyboard-response","44","509548","0.0-6.0-0.19","JOSC","3","m","rechts","24","","fixation","","","",""
"821","img/150_180.png","74","image-keyboard-response","45","510369","0.0-6.0-1.19","JOSC","3","m","rechts","24","","","self","j","150","true"
"null","<div style=""font-size:60px;"">+</div>","null","html-keyboard-response","46","510670","0.0-6.0-0.20","JOSC","3","m","rechts","24","","fixation","","","",""
"796","img/0_210.png","70","image-keyboard-response","47","511468","0.0-6.0-1.20","JOSC","3","m","rechts","24","","","self","f","0","true"
"null","<div style=""font-size:60px;"">+</div>","null","html-keyboard-response","48","511969","0.0-6.0-0.21","JOSC","3","m","rechts","24","","fixation","","","",""
"681","img/0_60.png","74","image-keyboard-response","49","512651","0.0-6.0-1.21","JOSC","3","m","rechts","24","","","self","j","0","true"
"null","<div style=""font-size:60px;"">+</div>","null","html-keyboard-response","50","513053","0.0-6.0-0.22","JOSC","3","m","rechts","24","","fixation","","","",""
"704","img/150_90.png","70","image-keyboard-response","51","513758","0.0-6.0-1.22","JOSC","3","m","rechts","24","","","self","f","150","true"
"null","<div style=""font-size:60px;"">+</div>","null","html-keyboard-response","52","514110","0.0-6.0-0.23","JOSC","3","m","rechts","24","","fixation","","","",""
"773","img/60_270.png","70","image-keyboard-response","53","514884","0.0-6.0-1.23","JOSC","3","m","rechts","24","","","self","f","60","true"
"null","<div style=""font-size:60px;"">+</div>","null","html-keyboard-response","54","515335","0.0-6.0-0.24","JOSC","3","m","rechts","24","","fixation","","","",""
"658","img/30_60.png","74","image-keyboard-response","55","515994","0.0-6.0-1.24","JOSC","3","m","rechts","24","","","self","j","30","true"
"null","<div style=""font-size:60px;"">+</div>","null","html-keyboard-response","56","516395","0.0-6.0-0.25","JOSC","3","m","rechts","24","","fixation","","","",""
"680","img/60_210.png","74","image-keyboard-response","57","517076","0.0-6.0-1.25","JOSC","3","m","rechts","24","","","self","j","60","true"
"null","<div style=""font-size:60px;"">+</div>","null","html-keyboard-response","58","517378","0.0-6.0-0.26","JOSC","3","m","rechts","24","","fixation","","","",""
"762","img/60_30.png","74","image-keyboard-response","59","518141","0.0-6.0-1.26","JOSC","3","m","rechts","24","","","self","j","60","true"
"null","<div style=""font-size:60px;"">+</div>","null","html-keyboard-response","60","518493","0.0-6.0-0.27","JOSC","3","m","rechts","24","","fixation","","","",""
"652","img/90_210.png","74","image-keyboard-response","61","519146","0.0-6.0-1.27","JOSC","3","m","rechts","24","","","self","j","90","true"
"null","<div style=""font-size:60px;"">+</div>","null","html-keyboard-response","62","519547","0.0-6.0-0.28","JOSC","3","m","rechts","24","","fixation","","","",""
"638","img/90_300.png","74","image-keyboard-response","63","520186","0.0-6.0-1.28","JOSC","3","m","rechts","24","","","self","f","90","false"
"null","<div style=""font-size:60px;"">+</div>","null","html-keyboard-response","64","520487","0.0-6.0-0.29","JOSC","3","m","rechts","24","","fixation","","","",""
"926","img/0_30.png","74","image-keyboard-response","65","521414","0.0-6.0-1.29","JOSC","3","m","rechts","24","","","self","j","0","true"
"null","<div style=""font-size:60px;"">+</div>","null","html-keyboard-response","66","521716","0.0-6.0-0.30","JOSC","3","m","rechts","24","","fixation","","","",""
"709","img/90_240.png","74","image-keyboard-response","67","522426","0.0-6.0-1.30","JOSC","3","m","rechts","24","","","self","j","90","true"
"null","<div style=""font-size:60px;"">+</div>","null","html-keyboard-response","68","522927","0.0-6.0-0.31","JOSC","3","m","rechts","24","","fixation","","","",""
"660","img/120_210.png","74","image-keyboard-response","69","523588","0.0-6.0-1.31","JOSC","3","m","rechts","24","","","self","j","120","true"
"null","<div style=""font-size:60px;"">+</div>","null","html-keyboard-response","70","524090","0.0-6.0-0.32","JOSC","3","m","rechts","24","","fixation","","","",""
"645","img/120_150.png","70","image-keyboard-response","71","524735","0.0-6.0-1.32","JOSC","3","m","rechts","24","","","self","f","120","true"
"null","<div style=""font-size:60px;"">+</div>","null","html-keyboard-response","72","525036","0.0-6.0-0.33","JOSC","3","m","rechts","24","","fixation","","","",""
"708","img/0_270.png","70","image-keyboard-response","73","525745","0.0-6.0-1.33","JOSC","3","m","rechts","24","","","self","f","0","true"
"null","<div style=""font-size:60px;"">+</div>","null","html-keyboard-response","74","526197","0.0-6.0-0.34","JOSC","3","m","rechts","24","","fixation","","","",""
"537","img/0_240.png","70","image-keyboard-response","75","526735","0.0-6.0-1.34","JOSC","3","m","rechts","24","","","self","f","0","true"
"null","<div style=""font-size:60px;"">+</div>","null","html-keyboard-response","76","527236","0.0-6.0-0.35","JOSC","3","m","rechts","24","","fixation","","","",""
"982","img/120_90.png","70","image-keyboard-response","77","528219","0.0-6.0-1.35","JOSC","3","m","rechts","24","","","self","f","120","true"
"null","<div style=""font-size:60px;"">+</div>","null","html-keyboard-response","78","528570","0.0-6.0-0.36","JOSC","3","m","rechts","24","","fixation","","","",""
"728","img/150_60.png","70","image-keyboard-response","79","529299","0.0-6.0-1.36","JOSC","3","m","rechts","24","","","self","f","150","true"
"null","<div style=""font-size:60px;"">+</div>","null","html-keyboard-response","80","529700","0.0-6.0-0.37","JOSC","3","m","rechts","24","","fixation","","","",""
"815","img/90_120.png","70","image-keyboard-response","81","530517","0.0-6.0-1.37","JOSC","3","m","rechts","24","","","self","f","90","true"
"null","<div style=""font-size:60px;"">+</div>","null","html-keyboard-response","82","530867","0.0-6.0-0.38","JOSC","3","m","rechts","24","","fixation","","","",""
"763","img/30_270.png","70","image-keyboard-response","83","531632","0.0-6.0-1.38","JOSC","3","m","rechts","24","","","self","f","30","true"
"null","<div style=""font-size:60px;"">+</div>","null","html-keyboard-response","84","531932","0.0-6.0-0.39","JOSC","3","m","rechts","24","","fixation","","","",""
"739","img/90_150.png","70","image-keyboard-response","85","532673","0.0-6.0-1.39","JOSC","3","m","rechts","24","","","self","f","90","true"
"null","<div style=""font-size:60px;"">+</div>","null","html-keyboard-response","86","533074","0.0-6.0-0.40","JOSC","3","m","rechts","24","","fixation","","","",""
"750","img/60_90.png","74","image-keyboard-response","87","533825","0.0-6.0-1.40","JOSC","3","m","rechts","24","","","self","j","60","true"
"null","<div style=""font-size:60px;"">+</div>","null","html-keyboard-response","88","534277","0.0-6.0-0.41","JOSC","3","m","rechts","24","","fixation","","","",""
"965","img/120_330.png","70","image-keyboard-response","89","535244","0.0-6.0-1.41","JOSC","3","m","rechts","24","","","self","f","120","true"
"null","<div style=""font-size:60px;"">+</div>","null","html-keyboard-response","90","535695","0.0-6.0-0.42","JOSC","3","m","rechts","24","","fixation","","","",""
"687","img/0_120.png","74","image-keyboard-response","91","536383","0.0-6.0-1.42","JOSC","3","m","rechts","24","","","self","j","0","true"
"null","<div style=""font-size:60px;"">+</div>","null","html-keyboard-response","92","536685","0.0-6.0-0.43","JOSC","3","m","rechts","24","","fixation","","","",""
"747","img/L90_180.png","70","image-keyboard-response","93","537434","0.0-6.0-1.43","JOSC","3","m","rechts","24","","","self","f","90","true"
"null","<div style=""font-size:60px;"">+</div>","null","html-keyboard-response","94","537885","0.0-6.0-0.44","JOSC","3","m","rechts","24","","fixation","","","",""
"818","img/120_270.png","74","image-keyboard-response","95","538704","0.0-6.0-1.44","JOSC","3","m","rechts","24","","","self","j","120","true"
"null","<div style=""font-size:60px;"">+</div>","null","html-keyboard-response","96","539106","0.0-6.0-0.45","JOSC","3","m","rechts","24","","fixation","","","",""
"817","img/30_300.png","70","image-keyboard-response","97","539925","0.0-6.0-1.45","JOSC","3","m","rechts","24","","","self","f","30","true"
"null","<div style=""font-size:60px;"">+</div>","null","html-keyboard-response","98","540226","0.0-6.0-0.46","JOSC","3","m","rechts","24","","fixation","","","",""
"765","img/150_300.png","74","image-keyboard-response","99","540992","0.0-6.0-1.46","JOSC","3","m","rechts","24","","","self","j","150","true"
"null","<div style=""font-size:60px;"">+</div>","null","html-keyboard-response","100","541294","0.0-6.0-0.47","JOSC","3","m","rechts","24","","fixation","","","",""
"834","img/120_30.png","70","image-keyboard-response","101","542129","0.0-6.0-1.47","JOSC","3","m","rechts","24","","","self","j","120","false"
"null","<div style=""font-size:60px;"">+</div>","null","html-keyboard-response","102","542531","0.0-6.0-0.48","JOSC","3","m","rechts","24","","fixation","","","",""
"854","img/L150_180.png","70","image-keyboard-response","103","543386","0.0-6.0-1.48","JOSC","3","m","rechts","24","","","self","f","150","true"
"null","<div style=""font-size:60px;"">+</div>","null","html-keyboard-response","104","543888","0.0-6.0-0.49","JOSC","3","m","rechts","24","","fixation","","","",""
"759","img/120_180.png","74","image-keyboard-response","105","544648","0.0-6.0-1.49","JOSC","3","m","rechts","24","","","self","j","120","true"
"null","<div style=""font-size:60px;"">+</div>","null","html-keyboard-response","106","545100","0.0-6.0-0.50","JOSC","3","m","rechts","24","","fixation","","","",""
"817","img/150_270.png","74","image-keyboard-response","107","545918","0.0-6.0-1.50","JOSC","3","m","rechts","24","","","self","j","150","true"
"null","<div style=""font-size:60px;"">+</div>","null","html-keyboard-response","108","546320","0.0-6.0-0.51","JOSC","3","m","rechts","24","","fixation","","","",""
"689","img/0_300.png","70","image-keyboard-response","109","547010","0.0-6.0-1.51","JOSC","3","m","rechts","24","","","self","f","0","true"
"null","<div style=""font-size:60px;"">+</div>","null","html-keyboard-response","110","547512","0.0-6.0-0.52","JOSC","3","m","rechts","24","","fixation","","","",""
"709","img/90_210.png","74","image-keyboard-response","111","548222","0.0-6.0-1.52","JOSC","3","m","rechts","24","","","self","j","90","true"
"null","<div style=""font-size:60px;"">+</div>","null","html-keyboard-response","112","548574","0.0-6.0-0.53","JOSC","3","m","rechts","24","","fixation","","","",""
"677","img/90_240.png","74","image-keyboard-response","113","549253","0.0-6.0-1.53","JOSC","3","m","rechts","24","","","self","j","90","true"
"null","<div style=""font-size:60px;"">+</div>","null","html-keyboard-response","114","549654","0.0-6.0-0.54","JOSC","3","m","rechts","24","","fixation","","","",""
"639","img/0_150.png","74","image-keyboard-response","115","550295","0.0-6.0-1.54","JOSC","3","m","rechts","24","","","self","j","0","true"
"null","<div style=""font-size:60px;"">+</div>","null","html-keyboard-response","116","550696","0.0-6.0-0.55","JOSC","3","m","rechts","24","","fixation","","","",""
"706","img/30_270.png","70","image-keyboard-response","117","551403","0.0-6.0-1.55","JOSC","3","m","rechts","24","","","self","f","30","true"
"null","<div style=""font-size:60px;"">+</div>","null","html-keyboard-response","118","551855","0.0-6.0-0.56","JOSC","3","m","rechts","24","","fixation","","","",""
"714","img/150_180.png","74","image-keyboard-response","119","552570","0.0-6.0-1.56","JOSC","3","m","rechts","24","","","self","j","150","true"
"null","<div style=""font-size:60px;"">+</div>","null","html-keyboard-response","120","552922","0.0-6.0-0.57","JOSC","3","m","rechts","24","","fixation","","","",""
"733","img/150_270.png","74","image-keyboard-response","121","553656","0.0-6.0-1.57","JOSC","3","m","rechts","24","","","self","j","150","true"
"null","<div style=""font-size:60px;"">+</div>","null","html-keyboard-response","122","553958","0.0-6.0-0.58","JOSC","3","m","rechts","24","","fixation","","","",""
"940","img/60_150.png","70","image-keyboard-response","123","554898","0.0-6.0-1.58","JOSC","3","m","rechts","24","","","self","f","60","true"
"null","<div style=""font-size:60px;"">+</div>","null","html-keyboard-response","124","555299","0.0-6.0-0.59","JOSC","3","m","rechts","24","","fixation","","","",""
"877","img/90_30.png","74","image-keyboard-response","125","556176","0.0-6.0-1.59","JOSC","3","m","rechts","24","","","self","j","90","true"
"null","<div style=""font-size:60px;"">+</div>","null","html-keyboard-response","126","556478","0.0-6.0-0.60","JOSC","3","m","rechts","24","","fixation","","","",""
"930","img/90_300.png","70","image-keyboard-response","127","557408","0.0-6.0-1.60","JOSC","3","m","rechts","24","","","self","f","90","true"
"null","<div style=""font-size:60px;"">+</div>","null","html-keyboard-response","128","557810","0.0-6.0-0.61","JOSC","3","m","rechts","24","","fixation","","","",""
"807","img/90_150.png","70","image-keyboard-response","129","558617","0.0-6.0-1.61","JOSC","3","m","rechts","24","","","self","f","90","true"
"null","<div style=""font-size:60px;"">+</div>","null","html-keyboard-response","130","559118","0.0-6.0-0.62","JOSC","3","m","rechts","24","","fixation","","","",""
"743","img/30_300.png","70","image-keyboard-response","131","559861","0.0-6.0-1.62","JOSC","3","m","rechts","24","","","self","f","30","true"
"null","<div style=""font-size:60px;"">+</div>","null","html-keyboard-response","132","560213","0.0-6.0-0.63","JOSC","3","m","rechts","24","","fixation","","","",""
"678","img/30_180.png","74","image-keyboard-response","133","560891","0.0-6.0-1.63","JOSC","3","m","rechts","24","","","self","j","30","true"
"null","<div style=""font-size:60px;"">+</div>","null","html-keyboard-response","134","561293","0.0-6.0-0.64","JOSC","3","m","rechts","24","","fixation","","","",""
"742","img/120_150.png","70","image-keyboard-response","135","562036","0.0-6.0-1.64","JOSC","3","m","rechts","24","","","self","f","120","true"
"null","<div style=""font-size:60px;"">+</div>","null","html-keyboard-response","136","562438","0.0-6.0-0.65","JOSC","3","m","rechts","24","","fixation","","","",""
"758","img/L90_180.png","70","image-keyboard-response","137","563197","0.0-6.0-1.65","JOSC","3","m","rechts","24","","","self","f","90","true"
"null","<div style=""font-size:60px;"">+</div>","null","html-keyboard-response","138","563649","0.0-6.0-0.66","JOSC","3","m","rechts","24","","fixation","","","",""
"720","img/150_240.png","74","image-keyboard-response","139","564370","0.0-6.0-1.66","JOSC","3","m","rechts","24","","","self","j","150","true"
"null","<div style=""font-size:60px;"">+</div>","null","html-keyboard-response","140","564672","0.0-6.0-0.67","JOSC","3","m","rechts","24","","fixation","","","",""
"741","img/150_300.png","74","image-keyboard-response","141","565413","0.0-6.0-1.67","JOSC","3","m","rechts","24","","","self","j","150","true"
"null","<div style=""font-size:60px;"">+</div>","null","html-keyboard-response","142","565765","0.0-6.0-0.68","JOSC","3","m","rechts","24","","fixation","","","",""
"709","img/150_120.png","70","image-keyboard-response","143","566474","0.0-6.0-1.68","JOSC","3","m","rechts","24","","","self","f","150","true"
"null","<div style=""font-size:60px;"">+</div>","null","html-keyboard-response","144","566975","0.0-6.0-0.69","JOSC","3","m","rechts","24","","fixation","","","",""
"796","img/90_330.png","70","image-keyboard-response","145","567772","0.0-6.0-1.69","JOSC","3","m","rechts","24","","","self","f","90","true"
"null","<div style=""font-size:60px;"">+</div>","null","html-keyboard-response","146","568073","0.0-6.0-0.70","JOSC","3","m","rechts","24","","fixation","","","",""
"932","img/L30_180.png","70","image-keyboard-response","147","569006","0.0-6.0-1.70","JOSC","3","m","rechts","24","","","self","f","30","true"
"null","<div style=""font-size:60px;"">+</div>","null","html-keyboard-response","148","569358","0.0-6.0-0.71","JOSC","3","m","rechts","24","","fixation","","","",""
"799","img/120_30.png","74","image-keyboard-response","149","570158","0.0-6.0-1.71","JOSC","3","m","rechts","24","","","self","j","120","true"
"null","<div style=""font-size:60px;"">+</div>","null","html-keyboard-response","150","570559","0.0-6.0-0.72","JOSC","3","m","rechts","24","","fixation","","","",""
"722","img/L150_180.png","70","image-keyboard-response","151","571282","0.0-6.0-1.72","JOSC","3","m","rechts","24","","","self","f","150","true"
"null","<div style=""font-size:60px;"">+</div>","null","html-keyboard-response","152","571583","0.0-6.0-0.73","JOSC","3","m","rechts","24","","fixation","","","",""
"913","img/30_90.png","74","image-keyboard-response","153","572497","0.0-6.0-1.73","JOSC","3","m","rechts","24","","","self","j","30","true"
"null","<div style=""font-size:60px;"">+</div>","null","html-keyboard-response","154","572999","0.0-6.0-0.74","JOSC","3","m","rechts","24","","fixation","","","",""
"767","img/90_60.png","74","image-keyboard-response","155","573766","0.0-6.0-1.74","JOSC","3","m","rechts","24","","","self","j","90","true"
"null","<div style=""font-size:60px;"">+</div>","null","html-keyboard-response","156","574118","0.0-6.0-0.75","JOSC","3","m","rechts","24","","fixation","","","",""
"781","img/90_120.png","70","image-keyboard-response","157","574899","0.0-6.0-1.75","JOSC","3","m","rechts","24","","","self","f","90","true"
"null","<div style=""font-size:60px;"">+</div>","null","html-keyboard-response","158","575250","0.0-6.0-0.76","JOSC","3","m","rechts","24","","fixation","","","",""
"708","img/L120_180.png","70","image-keyboard-response","159","575959","0.0-6.0-1.76","JOSC","3","m","rechts","24","","","self","f","120","true"
"null","<div style=""font-size:60px;"">+</div>","null","html-keyboard-response","160","576311","0.0-6.0-0.77","JOSC","3","m","rechts","24","","fixation","","","",""
"779","img/L60_180.png","70","image-keyboard-response","161","577090","0.0-6.0-1.77","JOSC","3","m","rechts","24","","","self","f","60","true"
"null","<div style=""font-size:60px;"">+</div>","null","html-keyboard-response","162","577591","0.0-6.0-0.78","JOSC","3","m","rechts","24","","fixation","","","",""
"1697","img/120_330.png","70","image-keyboard-response","163","579290","0.0-6.0-1.78","JOSC","3","m","rechts","24","","","self","f","120","true"
"null","<div style=""font-size:60px;"">+</div>","null","html-keyboard-response","164","579741","0.0-6.0-0.79","JOSC","3","m","rechts","24","","fixation","","","",""
"903","img/30_240.png","70","image-keyboard-response","165","580645","0.0-6.0-1.79","JOSC","3","m","rechts","24","","","self","f","30","true"
"null","<div style=""font-size:60px;"">+</div>","null","html-keyboard-response","166","580996","0.0-6.0-0.80","JOSC","3","m","rechts","24","","fixation","","","",""
"685","img/0_330.png","70","image-keyboard-response","167","581682","0.0-6.0-1.80","JOSC","3","m","rechts","24","","","self","f","0","true"
"null","<div style=""font-size:60px;"">+</div>","null","html-keyboard-response","168","582083","0.0-6.0-0.81","JOSC","3","m","rechts","24","","fixation","","","",""
"821","img/60_210.png","74","image-keyboard-response","169","582906","0.0-6.0-1.81","JOSC","3","m","rechts","24","","","self","j","60","true"
"null","<div style=""font-size:60px;"">+</div>","null","html-keyboard-response","170","583356","0.0-6.0-0.82","JOSC","3","m","rechts","24","","fixation","","","",""
"830","img/120_90.png","70","image-keyboard-response","171","584187","0.0-6.0-1.82","JOSC","3","m","rechts","24","","","self","f","120","true"
"null","<div style=""font-size:60px;"">+</div>","null","html-keyboard-response","172","584539","0.0-6.0-0.83","JOSC","3","m","rechts","24","","fixation","","","",""
"787","img/120_180.png","74","image-keyboard-response","173","585327","0.0-6.0-1.83","JOSC","3","m","rechts","24","","","self","j","120","true"
"null","<div style=""font-size:60px;"">+</div>","null","html-keyboard-response","174","585779","0.0-6.0-0.84","JOSC","3","m","rechts","24","","fixation","","","",""
"1149","img/150_60.png","70","image-keyboard-response","175","586928","0.0-6.0-1.84","JOSC","3","m","rechts","24","","","self","f","150","true"
"null","<div style=""font-size:60px;"">+</div>","null","html-keyboard-response","176","587280","0.0-6.0-0.85","JOSC","3","m","rechts","24","","fixation","","","",""
"730","img/60_30.png","74","image-keyboard-response","177","588011","0.0-6.0-1.85","JOSC","3","m","rechts","24","","","self","j","60","true"
"null","<div style=""font-size:60px;"">+</div>","null","html-keyboard-response","178","588463","0.0-6.0-0.86","JOSC","3","m","rechts","24","","fixation","","","",""
"752","img/30_60.png","74","image-keyboard-response","179","589216","0.0-6.0-1.86","JOSC","3","m","rechts","24","","","self","j","30","true"
"null","<div style=""font-size:60px;"">+</div>","null","html-keyboard-response","180","589618","0.0-6.0-0.87","JOSC","3","m","rechts","24","","fixation","","","",""
"821","img/30_120.png","74","image-keyboard-response","181","590440","0.0-6.0-1.87","JOSC","3","m","rechts","24","","","self","j","30","true"
"null","<div style=""font-size:60px;"">+</div>","null","html-keyboard-response","182","590792","0.0-6.0-0.88","JOSC","3","m","rechts","24","","fixation","","","",""
"701","img/0_210.png","70","image-keyboard-response","183","591494","0.0-6.0-1.88","JOSC","3","m","rechts","24","","","self","f","0","true"
"null","<div style=""font-size:60px;"">+</div>","null","html-keyboard-response","184","591896","0.0-6.0-0.89","JOSC","3","m","rechts","24","","fixation","","","",""
"727","img/120_270.png","74","image-keyboard-response","185","592625","0.0-6.0-1.89","JOSC","3","m","rechts","24","","","self","j","120","true"
"null","<div style=""font-size:60px;"">+</div>","null","html-keyboard-response","186","593076","0.0-6.0-0.90","JOSC","3","m","rechts","24","","fixation","","","",""
"739","img/0_120.png","74","image-keyboard-response","187","593816","0.0-6.0-1.90","JOSC","3","m","rechts","24","","","self","j","0","true"
"null","<div style=""font-size:60px;"">+</div>","null","html-keyboard-response","188","594118","0.0-6.0-0.91","JOSC","3","m","rechts","24","","fixation","","","",""
"961","img/60_180.png","74","image-keyboard-response","189","595080","0.0-6.0-1.91","JOSC","3","m","rechts","24","","","self","j","60","true"
"null","<div style=""font-size:60px;"">+</div>","null","html-keyboard-response","190","595381","0.0-6.0-0.92","JOSC","3","m","rechts","24","","fixation","","","",""
"994","img/120_210.png","74","image-keyboard-response","191","596376","0.0-6.0-1.92","JOSC","3","m","rechts","24","","","self","j","120","true"
"null","<div style=""font-size:60px;"">+</div>","null","html-keyboard-response","192","596828","0.0-6.0-0.93","JOSC","3","m","rechts","24","","fixation","","","",""
"811","img/60_330.png","70","image-keyboard-response","193","597640","0.0-6.0-1.93","JOSC","3","m","rechts","24","","","self","f","60","true"
"null","<div style=""font-size:60px;"">+</div>","null","html-keyboard-response","194","597941","0.0-6.0-0.94","JOSC","3","m","rechts","24","","fixation","","","",""
"751","img/60_270.png","70","image-keyboard-response","195","598693","0.0-6.0-1.94","JOSC","3","m","rechts","24","","","self","f","60","true"
"null","<div style=""font-size:60px;"">+</div>","null","html-keyboard-response","196","599195","0.0-6.0-0.95","JOSC","3","m","rechts","24","","fixation","","","",""
"732","img/0_30.png","74","image-keyboard-response","197","599928","0.0-6.0-1.95","JOSC","3","m","rechts","24","","","self","j","0","true"
"null","<div style=""font-size:60px;"">+</div>","null","html-keyboard-response","198","600229","0.0-6.0-0.96","JOSC","3","m","rechts","24","","fixation","","","",""
"854","img/60_90.png","74","image-keyboard-response","199","601084","0.0-6.0-1.96","JOSC","3","m","rechts","24","","","self","j","60","true"
"null","<div style=""font-size:60px;"">+</div>","null","html-keyboard-response","200","601436","0.0-6.0-0.97","JOSC","3","m","rechts","24","","fixation","","","",""
"799","img/0_90.png","74","image-keyboard-response","201","602236","0.0-6.0-1.97","JOSC","3","m","rechts","24","","","self","j","0","true"
"null","<div style=""font-size:60px;"">+</div>","null","html-keyboard-response","202","602688","0.0-6.0-0.98","JOSC","3","m","rechts","24","","fixation","","","",""
"815","img/0_300.png","70","image-keyboard-response","203","603503","0.0-6.0-1.98","JOSC","3","m","rechts","24","","","self","f","0","true"
"null","<div style=""font-size:60px;"">+</div>","null","html-keyboard-response","204","603805","0.0-6.0-0.99","JOSC","3","m","rechts","24","","fixation","","","",""
"858","img/150_90.png","70","image-keyboard-response","205","604664","0.0-6.0-1.99","JOSC","3","m","rechts","24","","","self","f","150","true"
"null","<div style=""font-size:60px;"">+</div>","null","html-keyboard-response","206","604965","0.0-6.0-0.100","JOSC","3","m","rechts","24","","fixation","","","",""
"683","img/0_60.png","74","image-keyboard-response","207","605650","0.0-6.0-1.100","JOSC","3","m","rechts","24","","","self","j","0","true"
"null","<div style=""font-size:60px;"">+</div>","null","html-keyboard-response","208","606100","0.0-6.0-0.101","JOSC","3","m","rechts","24","","fixation","","","",""
"652","img/0_270.png","70","image-keyboard-response","209","606753","0.0-6.0-1.101","JOSC","3","m","rechts","24","","","self","f","0","true"
"null","<div style=""font-size:60px;"">+</div>","null","html-keyboard-response","210","607104","0.0-6.0-0.102","JOSC","3","m","rechts","24","","fixation","","","",""
"724","img/90_180.png","74","image-keyboard-response","211","607829","0.0-6.0-1.102","JOSC","3","m","rechts","24","","","self","j","90","true"
"null","<div style=""font-size:60px;"">+</div>","null","html-keyboard-response","212","608131","0.0-6.0-0.103","JOSC","3","m","rechts","24","","fixation","","","",""
"865","img/0_240.png","70","image-keyboard-response","213","608997","0.0-6.0-1.103","JOSC","3","m","rechts","24","","","self","f","0","true"
"null","<div style=""font-size:60px;"">+</div>","null","html-keyboard-response","214","609448","0.0-6.0-0.104","JOSC","3","m","rechts","24","","fixation","","","",""
"737","img/L120_180.png","70","image-keyboard-response","215","610186","0.0-6.0-1.104","JOSC","3","m","rechts","24","","","self","f","120","true"
"null","<div style=""font-size:60px;"">+</div>","null","html-keyboard-response","216","610688","0.0-6.0-0.105","JOSC","3","m","rechts","24","","fixation","","","",""
"697","img/0_30.png","74","image-keyboard-response","217","611385","0.0-6.0-1.105","JOSC","3","m","rechts","24","","","self","j","0","true"
"null","<div style=""font-size:60px;"">+</div>","null","html-keyboard-response","218","611687","0.0-6.0-0.106","JOSC","3","m","rechts","24","","fixation","","","",""
"811","img/0_270.png","70","image-keyboard-response","219","612498","0.0-6.0-1.106","JOSC","3","m","rechts","24","","","self","f","0","true"
"null","<div style=""font-size:60px;"">+</div>","null","html-keyboard-response","220","612850","0.0-6.0-0.107","JOSC","3","m","rechts","24","","fixation","","","",""
"814","img/60_30.png","74","image-keyboard-response","221","613664","0.0-6.0-1.107","JOSC","3","m","rechts","24","","","self","j","60","true"
"null","<div style=""font-size:60px;"">+</div>","null","html-keyboard-response","222","613966","0.0-6.0-0.108","JOSC","3","m","rechts","24","","fixation","","","",""
"1624","img/30_300.png","70","image-keyboard-response","223","615590","0.0-6.0-1.108","JOSC","3","m","rechts","24","","","self","f","30","true"
"null","<div style=""font-size:60px;"">+</div>","null","html-keyboard-response","224","615942","0.0-6.0-0.109","JOSC","3","m","rechts","24","","fixation","","","",""
"906","img/120_330.png","70","image-keyboard-response","225","616848","0.0-6.0-1.109","JOSC","3","m","rechts","24","","","self","f","120","true"
"null","<div style=""font-size:60px;"">+</div>","null","html-keyboard-response","226","617350","0.0-6.0-0.110","JOSC","3","m","rechts","24","","fixation","","","",""
"881","img/60_150.png","70","image-keyboard-response","227","618231","0.0-6.0-1.110","JOSC","3","m","rechts","24","","","self","f","60","true"
"null","<div style=""font-size:60px;"">+</div>","null","html-keyboard-response","228","618683","0.0-6.0-0.111","JOSC","3","m","rechts","24","","fixation","","","",""
"647","img/0_120.png","74","image-keyboard-response","229","619330","0.0-6.0-1.111","JOSC","3","m","rechts","24","","","self","j","0","true"
"null","<div style=""font-size:60px;"">+</div>","null","html-keyboard-response","230","619780","0.0-6.0-0.112","JOSC","3","m","rechts","24","","fixation","","","",""
"716","img/90_120.png","70","image-keyboard-response","231","620497","0.0-6.0-1.112","JOSC","3","m","rechts","24","","","self","f","90","true"
"null","<div style=""font-size:60px;"">+</div>","null","html-keyboard-response","232","620998","0.0-6.0-0.113","JOSC","3","m","rechts","24","","fixation","","","",""
"723","img/L90_180.png","70","image-keyboard-response","233","621722","0.0-6.0-1.113","JOSC","3","m","rechts","24","","","self","f","90","true"
"null","<div style=""font-size:60px;"">+</div>","null","html-keyboard-response","234","622123","0.0-6.0-0.114","JOSC","3","m","rechts","24","","fixation","","","",""
"673","img/90_150.png","70","image-keyboard-response","235","622797","0.0-6.0-1.114","JOSC","3","m","rechts","24","","","self","f","90","true"
"null","<div style=""font-size:60px;"">+</div>","null","html-keyboard-response","236","623248","0.0-6.0-0.115","JOSC","3","m","rechts","24","","fixation","","","",""
"759","img/120_210.png","74","image-keyboard-response","237","624009","0.0-6.0-1.115","JOSC","3","m","rechts","24","","","self","j","120","true"
"null","<div style=""font-size:60px;"">+</div>","null","html-keyboard-response","238","624460","0.0-6.0-0.116","JOSC","3","m","rechts","24","","fixation","","","",""
"796","img/30_180.png","74","image-keyboard-response","239","625257","0.0-6.0-1.116","JOSC","3","m","rechts","24","","","self","j","30","true"
"null","<div style=""font-size:60px;"">+</div>","null","html-keyboard-response","240","625658","0.0-6.0-0.117","JOSC","3","m","rechts","24","","fixation","","","",""
"649","img/0_90.png","74","image-keyboard-response","241","626307","0.0-6.0-1.117","JOSC","3","m","rechts","24","","","self","j","0","true"
"null","<div style=""font-size:60px;"">+</div>","null","html-keyboard-response","242","626758","0.0-6.0-0.118","JOSC","3","m","rechts","24","","fixation","","","",""
"654","img/30_270.png","70","image-keyboard-response","243","627413","0.0-6.0-1.118","JOSC","3","m","rechts","24","","","self","f","30","true"
"null","<div style=""font-size:60px;"">+</div>","null","html-keyboard-response","244","627914","0.0-6.0-0.119","JOSC","3","m","rechts","24","","fixation","","","",""
"742","img/60_270.png","70","image-keyboard-response","245","628657","0.0-6.0-1.119","JOSC","3","m","rechts","24","","","self","f","60","true"
"null","<div style=""font-size:60px;"">+</div>","null","html-keyboard-response","246","629008","0.0-6.0-0.120","JOSC","3","m","rechts","24","","fixation","","","",""
"1088","img/90_300.png","70","image-keyboard-response","247","630098","0.0-6.0-1.120","JOSC","3","m","rechts","24","","","self","f","90","true"
"null","<div style=""font-size:60px;"">+</div>","null","html-keyboard-response","248","630399","0.0-6.0-0.121","JOSC","3","m","rechts","24","","fixation","","","",""
"732","img/0_150.png","74","image-keyboard-response","249","631132","0.0-6.0-1.121","JOSC","3","m","rechts","24","","","self","j","0","true"
"null","<div style=""font-size:60px;"">+</div>","null","html-keyboard-response","250","631583","0.0-6.0-0.122","JOSC","3","m","rechts","24","","fixation","","","",""
"866","img/0_60.png","74","image-keyboard-response","251","632450","0.0-6.0-1.122","JOSC","3","m","rechts","24","","","self","j","0","true"
"null","<div style=""font-size:60px;"">+</div>","null","html-keyboard-response","252","632751","0.0-6.0-0.123","JOSC","3","m","rechts","24","","fixation","","","",""
"1766","img/90_30.png","74","image-keyboard-response","253","634518","0.0-6.0-1.123","JOSC","3","m","rechts","24","","","self","j","90","true"
"null","<div style=""font-size:60px;"">+</div>","null","html-keyboard-response","254","634970","0.0-6.0-0.124","JOSC","3","m","rechts","24","","fixation","","","",""
"707","img/150_90.png","70","image-keyboard-response","255","635679","0.0-6.0-1.124","JOSC","3","m","rechts","24","","","self","f","150","true"
"null","<div style=""font-size:60px;"">+</div>","null","html-keyboard-response","256","636080","0.0-6.0-0.125","JOSC","3","m","rechts","24","","fixation","","","",""
"738","img/150_60.png","70","image-keyboard-response","257","636820","0.0-6.0-1.125","JOSC","3","m","rechts","24","","","self","f","150","true"
"null","<div style=""font-size:60px;"">+</div>","null","html-keyboard-response","258","637121","0.0-6.0-0.126","JOSC","3","m","rechts","24","","fixation","","","",""
"664","img/150_120.png","70","image-keyboard-response","259","637786","0.0-6.0-1.126","JOSC","3","m","rechts","24","","","self","f","150","true"
"null","<div style=""font-size:60px;"">+</div>","null","html-keyboard-response","260","638188","0.0-6.0-0.127","JOSC","3","m","rechts","24","","fixation","","","",""
"772","img/120_30.png","74","image-keyboard-response","261","638960","0.0-6.0-1.127","JOSC","3","m","rechts","24","","","self","j","120","true"
"null","<div style=""font-size:60px;"">+</div>","null","html-keyboard-response","262","639312","0.0-6.0-0.128","JOSC","3","m","rechts","24","","fixation","","","",""
"890","img/150_180.png","74","image-keyboard-response","263","640203","0.0-6.0-1.128","JOSC","3","m","rechts","24","","","self","j","150","true"
"null","<div style=""font-size:60px;"">+</div>","null","html-keyboard-response","264","640555","0.0-6.0-0.129","JOSC","3","m","rechts","24","","fixation","","","",""
"881","img/30_90.png","74","image-keyboard-response","265","641438","0.0-6.0-1.129","JOSC","3","m","rechts","24","","","self","j","30","true"
"null","<div style=""font-size:60px;"">+</div>","null","html-keyboard-response","266","641739","0.0-6.0-0.130","JOSC","3","m","rechts","24","","fixation","","","",""
"836","img/90_240.png","74","image-keyboard-response","267","642577","0.0-6.0-1.130","JOSC","3","m","rechts","24","","","self","j","90","true"
"null","<div style=""font-size:60px;"">+</div>","null","html-keyboard-response","268","643078","0.0-6.0-0.131","JOSC","3","m","rechts","24","","fixation","","","",""
"763","img/L30_180.png","70","image-keyboard-response","269","643842","0.0-6.0-1.131","JOSC","3","m","rechts","24","","","self","f","30","true"
"null","<div style=""font-size:60px;"">+</div>","null","html-keyboard-response","270","644294","0.0-6.0-0.132","JOSC","3","m","rechts","24","","fixation","","","",""
"690","img/90_210.png","74","image-keyboard-response","271","644986","0.0-6.0-1.132","JOSC","3","m","rechts","24","","","self","j","90","true"
"null","<div style=""font-size:60px;"">+</div>","null","html-keyboard-response","272","645287","0.0-6.0-0.133","JOSC","3","m","rechts","24","","fixation","","","",""
"804","img/150_270.png","74","image-keyboard-response","273","646092","0.0-6.0-1.133","JOSC","3","m","rechts","24","","","self","j","150","true"
"null","<div style=""font-size:60px;"">+</div>","null","html-keyboard-response","274","646544","0.0-6.0-0.134","JOSC","3","m","rechts","24","","fixation","","","",""
"722","img/0_240.png","70","image-keyboard-response","275","647268","0.0-6.0-1.134","JOSC","3","m","rechts","24","","","self","f","0","true"
"null","<div style=""font-size:60px;"">+</div>","null","html-keyboard-response","276","647620","0.0-6.0-0.135","JOSC","3","m","rechts","24","","fixation","","","",""
"982","img/90_330.png","70","image-keyboard-response","277","648603","0.0-6.0-1.135","JOSC","3","m","rechts","24","","","self","f","90","true"
"null","<div style=""font-size:60px;"">+</div>","null","html-keyboard-response","278","648954","0.0-6.0-0.136","JOSC","3","m","rechts","24","","fixation","","","",""
"838","img/120_150.png","70","image-keyboard-response","279","649793","0.0-6.0-1.136","JOSC","3","m","rechts","24","","","self","f","120","true"
"null","<div style=""font-size:60px;"">+</div>","null","html-keyboard-response","280","650145","0.0-6.0-0.137","JOSC","3","m","rechts","24","","fixation","","","",""
"789","img/L60_180.png","70","image-keyboard-response","281","650934","0.0-6.0-1.137","JOSC","3","m","rechts","24","","","self","f","60","true"
"null","<div style=""font-size:60px;"">+</div>","null","html-keyboard-response","282","651436","0.0-6.0-0.138","JOSC","3","m","rechts","24","","fixation","","","",""
"692","img/120_180.png","74","image-keyboard-response","283","652129","0.0-6.0-1.138","JOSC","3","m","rechts","24","","","self","j","120","true"
"null","<div style=""font-size:60px;"">+</div>","null","html-keyboard-response","284","652631","0.0-6.0-0.139","JOSC","3","m","rechts","24","","fixation","","","",""
"633","img/90_180.png","74","image-keyboard-response","285","653265","0.0-6.0-1.139","JOSC","3","m","rechts","24","","","self","j","90","true"
"null","<div style=""font-size:60px;"">+</div>","null","html-keyboard-response","286","653767","0.0-6.0-0.140","JOSC","3","m","rechts","24","","fixation","","","",""
"885","img/90_60.png","74","image-keyboard-response","287","654653","0.0-6.0-1.140","JOSC","3","m","rechts","24","","","self","j","90","true"
"null","<div style=""font-size:60px;"">+</div>","null","html-keyboard-response","288","655155","0.0-6.0-0.141","JOSC","3","m","rechts","24","","fixation","","","",""
"746","img/0_330.png","70","image-keyboard-response","289","655901","0.0-6.0-1.141","JOSC","3","m","rechts","24","","","self","f","0","true"
"null","<div style=""font-size:60px;"">+</div>","null","html-keyboard-response","290","656402","0.0-6.0-0.142","JOSC","3","m","rechts","24","","fixation","","","",""
"1562","img/150_300.png","74","image-keyboard-response","291","657965","0.0-6.0-1.142","JOSC","3","m","rechts","24","","","self","j","150","true"
"null","<div style=""font-size:60px;"">+</div>","null","html-keyboard-response","292","658267","0.0-6.0-0.143","JOSC","3","m","rechts","24","","fixation","","","",""
"757","img/120_270.png","74","image-keyboard-response","293","659024","0.0-6.0-1.143","JOSC","3","m","rechts","24","","","self","j","120","true"
"null","<div style=""font-size:60px;"">+</div>","null","html-keyboard-response","294","659425","0.0-6.0-0.144","JOSC","3","m","rechts","24","","fixation","","","",""
"741","img/150_240.png","74","image-keyboard-response","295","660167","0.0-6.0-1.144","JOSC","3","m","rechts","24","","","self","j","150","true"
"null","<div style=""font-size:60px;"">+</div>","null","html-keyboard-response","296","660619","0.0-6.0-0.145","JOSC","3","m","rechts","24","","fixation","","","",""
"808","img/L150_180.png","70","image-keyboard-response","297","661427","0.0-6.0-1.145","JOSC","3","m","rechts","24","","","self","f","150","true"
"null","<div style=""font-size:60px;"">+</div>","null","html-keyboard-response","298","661829","0.0-6.0-0.146","JOSC","3","m","rechts","24","","fixation","","","",""
"864","img/60_210.png","74","image-keyboard-response","299","662693","0.0-6.0-1.146","JOSC","3","m","rechts","24","","","self","j","60","true"
"null","<div style=""font-size:60px;"">+</div>","null","html-keyboard-response","300","663194","0.0-6.0-0.147","JOSC","3","m","rechts","24","","fixation","","","",""
"896","img/60_90.png","74","image-keyboard-response","301","664090","0.0-6.0-1.147","JOSC","3","m","rechts","24","","","self","j","60","true"
"null","<div style=""font-size:60px;"">+</div>","null","html-keyboard-response","302","664592","0.0-6.0-0.148","JOSC","3","m","rechts","24","","fixation","","","",""
"667","img/0_210.png","70","image-keyboard-response","303","665259","0.0-6.0-1.148","JOSC","3","m","rechts","24","","","self","f","0","true"
"null","<div style=""font-size:60px;"">+</div>","null","html-keyboard-response","304","665561","0.0-6.0-0.149","JOSC","3","m","rechts","24","","fixation","","","",""
"742","img/60_330.png","70","image-keyboard-response","305","666303","0.0-6.0-1.149","JOSC","3","m","rechts","24","","","self","f","60","true"
"null","<div style=""font-size:60px;"">+</div>","null","html-keyboard-response","306","666604","0.0-6.0-0.150","JOSC","3","m","rechts","24","","fixation","","","",""
"809","img/30_240.png","70","image-keyboard-response","307","667413","0.0-6.0-1.150","JOSC","3","m","rechts","24","","","self","f","30","true"
"null","<div style=""font-size:60px;"">+</div>","null","html-keyboard-response","308","667765","0.0-6.0-0.151","JOSC","3","m","rechts","24","","fixation","","","",""
"649","img/60_180.png","74","image-keyboard-response","309","668414","0.0-6.0-1.151","JOSC","3","m","rechts","24","","","self","j","60","true"
"null","<div style=""font-size:60px;"">+</div>","null","html-keyboard-response","310","668766","0.0-6.0-0.152","JOSC","3","m","rechts","24","","fixation","","","",""
"781","img/120_90.png","70","image-keyboard-response","311","669547","0.0-6.0-1.152","JOSC","3","m","rechts","24","","","self","f","120","true"
"null","<div style=""font-size:60px;"">+</div>","null","html-keyboard-response","312","670048","0.0-6.0-0.153","JOSC","3","m","rechts","24","","fixation","","","",""
"828","img/30_120.png","74","image-keyboard-response","313","670877","0.0-6.0-1.153","JOSC","3","m","rechts","24","","","self","j","30","true"
"null","<div style=""font-size:60px;"">+</div>","null","html-keyboard-response","314","671178","0.0-6.0-0.154","JOSC","3","m","rechts","24","","fixation","","","",""
"622","img/0_300.png","70","image-keyboard-response","315","671802","0.0-6.0-1.154","JOSC","3","m","rechts","24","","","self","f","0","true"
"null","<div style=""font-size:60px;"">+</div>","null","html-keyboard-response","316","672253","0.0-6.0-0.155","JOSC","3","m","rechts","24","","fixation","","","",""
"728","img/30_60.png","74","image-keyboard-response","317","672982","0.0-6.0-1.155","JOSC","3","m","rechts","24","","","self","j","30","true"
"null","<div style=""font-size:60px;"">+</div>","null","html-keyboard-response","318","673434","0.0-6.0-0.156","JOSC","3","m","rechts","24","","fixation","","","",""
"633","img/120_90.png","70","image-keyboard-response","319","674067","0.0-6.0-1.156","JOSC","3","m","rechts","24","","","self","f","120","true"
"null","<div style=""font-size:60px;"">+</div>","null","html-keyboard-response","320","674369","0.0-6.0-0.157","JOSC","3","m","rechts","24","","fixation","","","",""
"695","img/150_180.png","74","image-keyboard-response","321","675064","0.0-6.0-1.157","JOSC","3","m","rechts","24","","","self","j","150","true"
"null","<div style=""font-size:60px;"">+</div>","null","html-keyboard-response","322","675565","0.0-6.0-0.158","JOSC","3","m","rechts","24","","fixation","","","",""
"634","img/L60_180.png","70","image-keyboard-response","323","676201","0.0-6.0-1.158","JOSC","3","m","rechts","24","","","self","f","60","true"
"null","<div style=""font-size:60px;"">+</div>","null","html-keyboard-response","324","676652","0.0-6.0-0.159","JOSC","3","m","rechts","24","","fixation","","","",""
"663","img/90_210.png","74","image-keyboard-response","325","677317","0.0-6.0-1.159","JOSC","3","m","rechts","24","","","self","j","90","true"
"null","<div style=""font-size:60px;"">+</div>","null","html-keyboard-response","326","677668","0.0-6.0-0.160","JOSC","3","m","rechts","24","","fixation","","","",""
"663","img/120_150.png","70","image-keyboard-response","327","678333","0.0-6.0-1.160","JOSC","3","m","rechts","24","","","self","f","120","true"
"null","<div style=""font-size:60px;"">+</div>","null","html-keyboard-response","328","678634","0.0-6.0-0.161","JOSC","3","m","rechts","24","","fixation","","","",""
"762","img/0_60.png","74","image-keyboard-response","329","679397","0.0-6.0-1.161","JOSC","3","m","rechts","24","","","self","j","0","true"
"null","<div style=""font-size:60px;"">+</div>","null","html-keyboard-response","330","679798","0.0-6.0-0.162","JOSC","3","m","rechts","24","","fixation","","","",""
"647","img/0_270.png","70","image-keyboard-response","331","680446","0.0-6.0-1.162","JOSC","3","m","rechts","24","","","self","f","0","true"
"null","<div style=""font-size:60px;"">+</div>","null","html-keyboard-response","332","680846","0.0-6.0-0.163","JOSC","3","m","rechts","24","","fixation","","","",""
"751","img/L120_180.png","70","image-keyboard-response","333","681598","0.0-6.0-1.163","JOSC","3","m","rechts","24","","","self","f","120","true"
"null","<div style=""font-size:60px;"">+</div>","null","html-keyboard-response","334","681900","0.0-6.0-0.164","JOSC","3","m","rechts","24","","fixation","","","",""
"743","img/90_30.png","70","image-keyboard-response","335","682644","0.0-6.0-1.164","JOSC","3","m","rechts","24","","","self","j","90","false"
"null","<div style=""font-size:60px;"">+</div>","null","html-keyboard-response","336","683045","0.0-6.0-0.165","JOSC","3","m","rechts","24","","fixation","","","",""
"1518","img/30_240.png","74","image-keyboard-response","337","684565","0.0-6.0-1.165","JOSC","3","m","rechts","24","","","self","f","30","false"
"null","<div style=""font-size:60px;"">+</div>","null","html-keyboard-response","338","684866","0.0-6.0-0.166","JOSC","3","m","rechts","24","","fixation","","","",""
"1947","img/30_90.png","74","image-keyboard-response","339","686814","0.0-6.0-1.166","JOSC","3","m","rechts","24","","","self","j","30","true"
"null","<div style=""font-size:60px;"">+</div>","null","html-keyboard-response","340","687315","0.0-6.0-0.167","JOSC","3","m","rechts","24","","fixation","","","",""
"989","img/150_60.png","70","image-keyboard-response","341","688306","0.0-6.0-1.167","JOSC","3","m","rechts","24","","","self","f","150","true"
"null","<div style=""font-size:60px;"">+</div>","null","html-keyboard-response","342","688707","0.0-6.0-0.168","JOSC","3","m","rechts","24","","fixation","","","",""
"1216","img/0_90.png","74","image-keyboard-response","343","689924","0.0-6.0-1.168","JOSC","3","m","rechts","24","","","self","j","0","true"
"null","<div style=""font-size:60px;"">+</div>","null","html-keyboard-response","344","690226","0.0-6.0-0.169","JOSC","3","m","rechts","24","","fixation","","","",""
"786","img/90_60.png","74","image-keyboard-response","345","691013","0.0-6.0-1.169","JOSC","3","m","rechts","24","","","self","j","90","true"
"null","<div style=""font-size:60px;"">+</div>","null","html-keyboard-response","346","691314","0.0-6.0-0.170","JOSC","3","m","rechts","24","","fixation","","","",""
"1582","img/120_180.png","74","image-keyboard-response","347","692897","0.0-6.0-1.170","JOSC","3","m","rechts","24","","","self","j","120","true"
"null","<div style=""font-size:60px;"">+</div>","null","html-keyboard-response","348","693299","0.0-6.0-0.171","JOSC","3","m","rechts","24","","fixation","","","",""
"891","img/0_240.png","70","image-keyboard-response","349","694191","0.0-6.0-1.171","JOSC","3","m","rechts","24","","","self","f","0","true"
"null","<div style=""font-size:60px;"">+</div>","null","html-keyboard-response","350","694493","0.0-6.0-0.172","JOSC","3","m","rechts","24","","fixation","","","",""
"932","img/60_90.png","74","image-keyboard-response","351","695426","0.0-6.0-1.172","JOSC","3","m","rechts","24","","","self","j","60","true"
"null","<div style=""font-size:60px;"">+</div>","null","html-keyboard-response","352","695777","0.0-6.0-0.173","JOSC","3","m","rechts","24","","fixation","","","",""
"874","img/60_180.png","74","image-keyboard-response","353","696651","0.0-6.0-1.173","JOSC","3","m","rechts","24","","","self","j","60","true"
"null","<div style=""font-size:60px;"">+</div>","null","html-keyboard-response","354","696953","0.0-6.0-0.174","JOSC","3","m","rechts","24","","fixation","","","",""
"1072","img/30_270.png","70","image-keyboard-response","355","698025","0.0-6.0-1.174","JOSC","3","m","rechts","24","","","self","f","30","true"
"null","<div style=""font-size:60px;"">+</div>","null","html-keyboard-response","356","698527","0.0-6.0-0.175","JOSC","3","m","rechts","24","","fixation","","","",""
"1145","img/150_300.png","74","image-keyboard-response","357","699672","0.0-6.0-1.175","JOSC","3","m","rechts","24","","","self","j","150","true"
"null","<div style=""font-size:60px;"">+</div>","null","html-keyboard-response","358","700074","0.0-6.0-0.176","JOSC","3","m","rechts","24","","fixation","","","",""
"868","img/30_120.png","74","image-keyboard-response","359","700942","0.0-6.0-1.176","JOSC","3","m","rechts","24","","","self","j","30","true"
"null","<div style=""font-size:60px;"">+</div>","null","html-keyboard-response","360","701394","0.0-6.0-0.177","JOSC","3","m","rechts","24","","fixation","","","",""
"1162","img/120_210.png","74","image-keyboard-response","361","702556","0.0-6.0-1.177","JOSC","3","m","rechts","24","","","self","j","120","true"
"null","<div style=""font-size:60px;"">+</div>","null","html-keyboard-response","362","702857","0.0-6.0-0.178","JOSC","3","m","rechts","24","","fixation","","","",""
"792","img/90_180.png","74","image-keyboard-response","363","703650","0.0-6.0-1.178","JOSC","3","m","rechts","24","","","self","j","90","true"
"null","<div style=""font-size:60px;"">+</div>","null","html-keyboard-response","364","703951","0.0-6.0-0.179","JOSC","3","m","rechts","24","","fixation","","","",""
"1140","img/90_330.png","70","image-keyboard-response","365","705092","0.0-6.0-1.179","JOSC","3","m","rechts","24","","","self","f","90","true"
"null","<div style=""font-size:60px;"">+</div>","null","html-keyboard-response","366","705444","0.0-6.0-0.180","JOSC","3","m","rechts","24","","fixation","","","",""
"934","img/60_30.png","74","image-keyboard-response","367","706379","0.0-6.0-1.180","JOSC","3","m","rechts","24","","","self","j","60","true"
"null","<div style=""font-size:60px;"">+</div>","null","html-keyboard-response","368","706730","0.0-6.0-0.181","JOSC","3","m","rechts","24","","fixation","","","",""
"1343","img/30_300.png","70","image-keyboard-response","369","708074","0.0-6.0-1.181","JOSC","3","m","rechts","24","","","self","f","30","true"
"null","<div style=""font-size:60px;"">+</div>","null","html-keyboard-response","370","708475","0.0-6.0-0.182","JOSC","3","m","rechts","24","","fixation","","","",""
"985","img/90_240.png","74","image-keyboard-response","371","709461","0.0-6.0-1.182","JOSC","3","m","rechts","24","","","self","j","90","true"
"null","<div style=""font-size:60px;"">+</div>","null","html-keyboard-response","372","709913","0.0-6.0-0.183","JOSC","3","m","rechts","24","","fixation","","","",""
"846","img/60_210.png","74","image-keyboard-response","373","710760","0.0-6.0-1.183","JOSC","3","m","rechts","24","","","self","j","60","true"
"null","<div style=""font-size:60px;"">+</div>","null","html-keyboard-response","374","711262","0.0-6.0-0.184","JOSC","3","m","rechts","24","","fixation","","","",""
"1308","img/150_270.png","74","image-keyboard-response","375","712571","0.0-6.0-1.184","JOSC","3","m","rechts","24","","","self","j","150","true"
"null","<div style=""font-size:60px;"">+</div>","null","html-keyboard-response","376","713073","0.0-6.0-0.185","JOSC","3","m","rechts","24","","fixation","","","",""
"818","img/0_210.png","70","image-keyboard-response","377","713891","0.0-6.0-1.185","JOSC","3","m","rechts","24","","","self","f","0","true"
"null","<div style=""font-size:60px;"">+</div>","null","html-keyboard-response","378","714392","0.0-6.0-0.186","JOSC","3","m","rechts","24","","fixation","","","",""
"761","img/120_30.png","74","image-keyboard-response","379","715154","0.0-6.0-1.186","JOSC","3","m","rechts","24","","","self","j","120","true"
"null","<div style=""font-size:60px;"">+</div>","null","html-keyboard-response","380","715505","0.0-6.0-0.187","JOSC","3","m","rechts","24","","fixation","","","",""
"876","img/0_30.png","74","image-keyboard-response","381","716382","0.0-6.0-1.187","JOSC","3","m","rechts","24","","","self","j","0","true"
"null","<div style=""font-size:60px;"">+</div>","null","html-keyboard-response","382","716783","0.0-6.0-0.188","JOSC","3","m","rechts","24","","fixation","","","",""
"787","img/150_90.png","70","image-keyboard-response","383","717571","0.0-6.0-1.188","JOSC","3","m","rechts","24","","","self","f","150","true"
"null","<div style=""font-size:60px;"">+</div>","null","html-keyboard-response","384","717872","0.0-6.0-0.189","JOSC","3","m","rechts","24","","fixation","","","",""
"796","img/L90_180.png","70","image-keyboard-response","385","718670","0.0-6.0-1.189","JOSC","3","m","rechts","24","","","self","f","90","true"
"null","<div style=""font-size:60px;"">+</div>","null","html-keyboard-response","386","719071","0.0-6.0-0.190","JOSC","3","m","rechts","24","","fixation","","","",""
"854","img/30_180.png","74","image-keyboard-response","387","719927","0.0-6.0-1.190","JOSC","3","m","rechts","24","","","self","j","30","true"
"null","<div style=""font-size:60px;"">+</div>","null","html-keyboard-response","388","720378","0.0-6.0-0.191","JOSC","3","m","rechts","24","","fixation","","","",""
"828","img/L150_180.png","70","image-keyboard-response","389","721207","0.0-6.0-1.191","JOSC","3","m","rechts","24","","","self","f","150","true"
"null","<div style=""font-size:60px;"">+</div>","null","html-keyboard-response","390","721509","0.0-6.0-0.192","JOSC","3","m","rechts","24","","fixation","","","",""
"813","img/60_330.png","70","image-keyboard-response","391","722322","0.0-6.0-1.192","JOSC","3","m","rechts","24","","","self","f","60","true"
"null","<div style=""font-size:60px;"">+</div>","null","html-keyboard-response","392","722823","0.0-6.0-0.193","JOSC","3","m","rechts","24","","fixation","","","",""
"847","img/90_120.png","70","image-keyboard-response","393","723671","0.0-6.0-1.193","JOSC","3","m","rechts","24","","","self","f","90","true"
"null","<div style=""font-size:60px;"">+</div>","null","html-keyboard-response","394","724072","0.0-6.0-0.194","JOSC","3","m","rechts","24","","fixation","","","",""
"1007","img/60_150.png","70","image-keyboard-response","395","725080","0.0-6.0-1.194","JOSC","3","m","rechts","24","","","self","f","60","true"
"null","<div style=""font-size:60px;"">+</div>","null","html-keyboard-response","396","725432","0.0-6.0-0.195","JOSC","3","m","rechts","24","","fixation","","","",""
"756","img/0_120.png","74","image-keyboard-response","397","726189","0.0-6.0-1.195","JOSC","3","m","rechts","24","","","self","j","0","true"
"null","<div style=""font-size:60px;"">+</div>","null","html-keyboard-response","398","726640","0.0-6.0-0.196","JOSC","3","m","rechts","24","","fixation","","","",""
"783","img/0_300.png","70","image-keyboard-response","399","727425","0.0-6.0-1.196","JOSC","3","m","rechts","24","","","self","f","0","true"
"null","<div style=""font-size:60px;"">+</div>","null","html-keyboard-response","400","727876","0.0-6.0-0.197","JOSC","3","m","rechts","24","","fixation","","","",""
"887","img/30_60.png","74","image-keyboard-response","401","728765","0.0-6.0-1.197","JOSC","3","m","rechts","24","","","self","j","30","true"
"null","<div style=""font-size:60px;"">+</div>","null","html-keyboard-response","402","729065","0.0-6.0-0.198","JOSC","3","m","rechts","24","","fixation","","","",""
"1072","img/150_240.png","74","image-keyboard-response","403","730138","0.0-6.0-1.198","JOSC","3","m","rechts","24","","","self","j","150","true"
"null","<div style=""font-size:60px;"">+</div>","null","html-keyboard-response","404","730540","0.0-6.0-0.199","JOSC","3","m","rechts","24","","fixation","","","",""
"1069","img/0_150.png","74","image-keyboard-response","405","731610","0.0-6.0-1.199","JOSC","3","m","rechts","24","","","self","j","0","true"
"null","<div style=""font-size:60px;"">+</div>","null","html-keyboard-response","406","732111","0.0-6.0-0.200","JOSC","3","m","rechts","24","","fixation","","","",""
"1563","img/120_270.png","74","image-keyboard-response","407","733675","0.0-6.0-1.200","JOSC","3","m","rechts","24","","","self","j","120","true"
"null","<div style=""font-size:60px;"">+</div>","null","html-keyboard-response","408","734127","0.0-6.0-0.201","JOSC","3","m","rechts","24","","fixation","","","",""
"676","img/60_270.png","70","image-keyboard-response","409","734805","0.0-6.0-1.201","JOSC","3","m","rechts","24","","","self","f","60","true"
"null","<div style=""font-size:60px;"">+</div>","null","html-keyboard-response","410","735255","0.0-6.0-0.202","JOSC","3","m","rechts","24","","fixation","","","",""
"774","img/0_330.png","70","image-keyboard-response","411","736030","0.0-6.0-1.202","JOSC","3","m","rechts","24","","","self","f","0","true"
"null","<div style=""font-size:60px;"">+</div>","null","html-keyboard-response","412","736332","0.0-6.0-0.203","JOSC","3","m","rechts","24","","fixation","","","",""
"1188","img/90_150.png","70","image-keyboard-response","413","737521","0.0-6.0-1.203","JOSC","3","m","rechts","24","","","self","f","90","true"
"null","<div style=""font-size:60px;"">+</div>","null","html-keyboard-response","414","737823","0.0-6.0-0.204","JOSC","3","m","rechts","24","","fixation","","","",""
"1137","img/90_300.png","70","image-keyboard-response","415","738962","0.0-6.0-1.204","JOSC","3","m","rechts","24","","","self","f","90","true"
"null","<div style=""font-size:60px;"">+</div>","null","html-keyboard-response","416","739313","0.0-6.0-0.205","JOSC","3","m","rechts","24","","fixation","","","",""
"758","img/120_330.png","70","image-keyboard-response","417","740072","0.0-6.0-1.205","JOSC","3","m","rechts","24","","","self","f","120","true"
"null","<div style=""font-size:60px;"">+</div>","null","html-keyboard-response","418","740573","0.0-6.0-0.206","JOSC","3","m","rechts","24","","fixation","","","",""
"1125","img/L30_180.png","70","image-keyboard-response","419","741699","0.0-6.0-1.206","JOSC","3","m","rechts","24","","","self","f","30","true"
"null","<div style=""font-size:60px;"">+</div>","null","html-keyboard-response","420","742151","0.0-6.0-0.207","JOSC","3","m","rechts","24","","fixation","","","",""
"786","img/150_120.png","70","image-keyboard-response","421","742938","0.0-6.0-1.207","JOSC","3","m","rechts","24","","","self","f","150","true"
"4128","<p>Du hast in 95% der Versuche korrekt entschieden.</p><p>Deine durchschnittliche Reaktionszeit war  837ms.</p><p>Dr&uuml;cke eine beliebige Taste, um die Session zu beenden. Vielen Dank!</p>","75","html-keyboard-response","422","747067","0.0-7.0","JOSC","3","m","rechts","24","","","","","",""
