"rt","stimulus","key_press","trial_type","trial_index","time_elapsed","internal_node_id","subject","session","sex","handedness","age","responses","test_part","condition","correct_response","angle","correct"
"4160","<p>Mental Rotation Experiment.</p> <p>Dr&uuml;cke eine beliebige Taste, um anzufangen.</p>","70","html-keyboard-response","0","4164","0.0-0.0","JOSC","1","m","rechts","24","","","","","",""
"11083","","","survey-text","1","15249","0.0-1.0","JOSC","1","m","rechts","24","{""Q0"":""JOSC""}","","","","",""
"2949","","","survey-text","2","18199","0.0-2.0","JOSC","1","m","rechts","24","{""Q0"":""1""}","","","","",""
"5778","","","survey-multi-choice","3","23979","0.0-3.0","JOSC","1","m","rechts","24","{""Q0"":""m"",""Q1"":""rechts""}","","","","",""
"15522","","","survey-text","4","39502","0.0-4.0","JOSC","1","m","rechts","24","{""Q0"":""24""}","","","","",""
"227038","<p> Stell dir vor, dass du vor einem runden Tisch stehst, auf dem sich ein blauer Ball am Tischrand befindet. Entlang des Tischrands ist jeweils ein verschieden langer Pfeil. Nun bewegst du dich entlang dieses Pfeils bis an seine Spitze. Wenn du am Ende des Pfeils angekommen bist, schau zur Tischmitte. </p> <img src='img/90_180.png'></img> <br> <p>Entscheide dann, ob der Ball von deiner neuen (vorgestellten) Position links oder rechts von dir liegt.</p> <p>Dr&uuml;cke die <strong>'f'</strong>-Taste f&uuml;r links, die <strong>'j'</strong>-Taste f&uuml;r rechts.</p> <br><p> Das Bild wird jeweils 1 Sekunde lang pr&auml;sentiert. Du hast 3 Sekunden Zeit eine Entscheidung zu treffen.</p>","74","html-keyboard-response","5","266541","0.0-5.0","JOSC","1","m","rechts","24","","","","","",""
"null","<div style=""font-size:60px;"">+</div>","null","html-keyboard-response","6","267844","0.0-6.0-0.0","JOSC","1","m","rechts","24","","fixation","","","",""
"1689","img/120_210.png","74","image-keyboard-response","7","269536","0.0-6.0-1.0","JOSC","1","m","rechts","24","","","self","j","120","true"
"null","<div style=""font-size:60px;"">+</div>","null","html-keyboard-response","8","270038","0.0-6.0-0.1","JOSC","1","m","rechts","24","","fixation","","","",""
"880","img/0_210.png","70","image-keyboard-response","9","270920","0.0-6.0-1.1","JOSC","1","m","rechts","24","","","self","f","0","true"
"null","<div style=""font-size:60px;"">+</div>","null","html-keyboard-response","10","271321","0.0-6.0-0.2","JOSC","1","m","rechts","24","","fixation","","","",""
"727","img/0_150.png","74","image-keyboard-response","11","272049","0.0-6.0-1.2","JOSC","1","m","rechts","24","","","self","j","0","true"
"null","<div style=""font-size:60px;"">+</div>","null","html-keyboard-response","12","272451","0.0-6.0-0.3","JOSC","1","m","rechts","24","","fixation","","","",""
"1399","img/150_270.png","74","image-keyboard-response","13","273851","0.0-6.0-1.3","JOSC","1","m","rechts","24","","","self","j","150","true"
"null","<div style=""font-size:60px;"">+</div>","null","html-keyboard-response","14","274303","0.0-6.0-0.4","JOSC","1","m","rechts","24","","fixation","","","",""
"1026","img/150_240.png","74","image-keyboard-response","15","275331","0.0-6.0-1.4","JOSC","1","m","rechts","24","","","self","j","150","true"
"null","<div style=""font-size:60px;"">+</div>","null","html-keyboard-response","16","275832","0.0-6.0-0.5","JOSC","1","m","rechts","24","","fixation","","","",""
"1389","img/30_300.png","70","image-keyboard-response","17","277222","0.0-6.0-1.5","JOSC","1","m","rechts","24","","","self","f","30","true"
"null","<div style=""font-size:60px;"">+</div>","null","html-keyboard-response","18","277524","0.0-6.0-0.6","JOSC","1","m","rechts","24","","fixation","","","",""
"904","img/0_270.png","70","image-keyboard-response","19","278429","0.0-6.0-1.6","JOSC","1","m","rechts","24","","","self","f","0","true"
"null","<div style=""font-size:60px;"">+</div>","null","html-keyboard-response","20","278881","0.0-6.0-0.7","JOSC","1","m","rechts","24","","fixation","","","",""
"1843","img/120_30.png","74","image-keyboard-response","21","280725","0.0-6.0-1.7","JOSC","1","m","rechts","24","","","self","j","120","true"
"null","<div style=""font-size:60px;"">+</div>","null","html-keyboard-response","22","281126","0.0-6.0-0.8","JOSC","1","m","rechts","24","","fixation","","","",""
"1733","img/30_120.png","74","image-keyboard-response","23","282860","0.0-6.0-1.8","JOSC","1","m","rechts","24","","","self","j","30","true"
"null","<div style=""font-size:60px;"">+</div>","null","html-keyboard-response","24","283362","0.0-6.0-0.9","JOSC","1","m","rechts","24","","fixation","","","",""
"1306","img/30_90.png","74","image-keyboard-response","25","284669","0.0-6.0-1.9","JOSC","1","m","rechts","24","","","self","j","30","true"
"null","<div style=""font-size:60px;"">+</div>","null","html-keyboard-response","26","285021","0.0-6.0-0.10","JOSC","1","m","rechts","24","","fixation","","","",""
"1257","img/150_60.png","70","image-keyboard-response","27","286279","0.0-6.0-1.10","JOSC","1","m","rechts","24","","","self","f","150","true"
"null","<div style=""font-size:60px;"">+</div>","null","html-keyboard-response","28","286630","0.0-6.0-0.11","JOSC","1","m","rechts","24","","fixation","","","",""
"1244","img/150_120.png","70","image-keyboard-response","29","287875","0.0-6.0-1.11","JOSC","1","m","rechts","24","","","self","f","150","true"
"null","<div style=""font-size:60px;"">+</div>","null","html-keyboard-response","30","288277","0.0-6.0-0.12","JOSC","1","m","rechts","24","","fixation","","","",""
"1097","img/60_270.png","70","image-keyboard-response","31","289375","0.0-6.0-1.12","JOSC","1","m","rechts","24","","","self","f","60","true"
"null","<div style=""font-size:60px;"">+</div>","null","html-keyboard-response","32","289727","0.0-6.0-0.13","JOSC","1","m","rechts","24","","fixation","","","",""
"889","img/30_270.png","70","image-keyboard-response","33","290617","0.0-6.0-1.13","JOSC","1","m","rechts","24","","","self","f","30","true"
"null","<div style=""font-size:60px;"">+</div>","null","html-keyboard-response","34","291019","0.0-6.0-0.14","JOSC","1","m","rechts","24","","fixation","","","",""
"1873","img/L150_180.png","70","image-keyboard-response","35","292893","0.0-6.0-1.14","JOSC","1","m","rechts","24","","","self","f","150","true"
"null","<div style=""font-size:60px;"">+</div>","null","html-keyboard-response","36","293295","0.0-6.0-0.15","JOSC","1","m","rechts","24","","fixation","","","",""
"859","img/0_60.png","74","image-keyboard-response","37","294155","0.0-6.0-1.15","JOSC","1","m","rechts","24","","","self","j","0","true"
"null","<div style=""font-size:60px;"">+</div>","null","html-keyboard-response","38","294656","0.0-6.0-0.16","JOSC","1","m","rechts","24","","fixation","","","",""
"1166","img/90_330.png","70","image-keyboard-response","39","295824","0.0-6.0-1.16","JOSC","1","m","rechts","24","","","self","f","90","true"
"null","<div style=""font-size:60px;"">+</div>","null","html-keyboard-response","40","296175","0.0-6.0-0.17","JOSC","1","m","rechts","24","","fixation","","","",""
"1007","img/0_120.png","74","image-keyboard-response","41","297184","0.0-6.0-1.17","JOSC","1","m","rechts","24","","","self","j","0","true"
"null","<div style=""font-size:60px;"">+</div>","null","html-keyboard-response","42","297535","0.0-6.0-0.18","JOSC","1","m","rechts","24","","fixation","","","",""
"1194","img/60_150.png","70","image-keyboard-response","43","298731","0.0-6.0-1.18","JOSC","1","m","rechts","24","","","self","f","60","true"
"null","<div style=""font-size:60px;"">+</div>","null","html-keyboard-response","44","299032","0.0-6.0-0.19","JOSC","1","m","rechts","24","","fixation","","","",""
"1656","img/120_270.png","74","image-keyboard-response","45","300690","0.0-6.0-1.19","JOSC","1","m","rechts","24","","","self","j","120","true"
"null","<div style=""font-size:60px;"">+</div>","null","html-keyboard-response","46","300991","0.0-6.0-0.20","JOSC","1","m","rechts","24","","fixation","","","",""
"1091","img/90_150.png","70","image-keyboard-response","47","302084","0.0-6.0-1.20","JOSC","1","m","rechts","24","","","self","f","90","true"
"null","<div style=""font-size:60px;"">+</div>","null","html-keyboard-response","48","302436","0.0-6.0-0.21","JOSC","1","m","rechts","24","","fixation","","","",""
"991","img/120_150.png","70","image-keyboard-response","49","303428","0.0-6.0-1.21","JOSC","1","m","rechts","24","","","self","f","120","true"
"null","<div style=""font-size:60px;"">+</div>","null","html-keyboard-response","50","303879","0.0-6.0-0.22","JOSC","1","m","rechts","24","","fixation","","","",""
"974","img/60_210.png","74","image-keyboard-response","51","304855","0.0-6.0-1.22","JOSC","1","m","rechts","24","","","self","j","60","true"
"null","<div style=""font-size:60px;"">+</div>","null","html-keyboard-response","52","305356","0.0-6.0-0.23","JOSC","1","m","rechts","24","","fixation","","","",""
"859","img/90_240.png","74","image-keyboard-response","53","306217","0.0-6.0-1.23","JOSC","1","m","rechts","24","","","self","j","90","true"
"null","<div style=""font-size:60px;"">+</div>","null","html-keyboard-response","54","306518","0.0-6.0-0.24","JOSC","1","m","rechts","24","","fixation","","","",""
"987","img/30_180.png","74","image-keyboard-response","55","307508","0.0-6.0-1.24","JOSC","1","m","rechts","24","","","self","j","30","true"
"null","<div style=""font-size:60px;"">+</div>","null","html-keyboard-response","56","307809","0.0-6.0-0.25","JOSC","1","m","rechts","24","","fixation","","","",""
"945","img/L90_180.png","70","image-keyboard-response","57","308755","0.0-6.0-1.25","JOSC","1","m","rechts","24","","","self","f","90","true"
"null","<div style=""font-size:60px;"">+</div>","null","html-keyboard-response","58","309056","0.0-6.0-0.26","JOSC","1","m","rechts","24","","fixation","","","",""
"1083","img/60_30.png","74","image-keyboard-response","59","310141","0.0-6.0-1.26","JOSC","1","m","rechts","24","","","self","j","60","true"
"null","<div style=""font-size:60px;"">+</div>","null","html-keyboard-response","60","310493","0.0-6.0-0.27","JOSC","1","m","rechts","24","","fixation","","","",""
"1083","img/120_180.png","74","image-keyboard-response","61","311577","0.0-6.0-1.27","JOSC","1","m","rechts","24","","","self","j","120","true"
"null","<div style=""font-size:60px;"">+</div>","null","html-keyboard-response","62","312079","0.0-6.0-0.28","JOSC","1","m","rechts","24","","fixation","","","",""
"867","img/150_90.png","70","image-keyboard-response","63","312948","0.0-6.0-1.28","JOSC","1","m","rechts","24","","","self","f","150","true"
"null","<div style=""font-size:60px;"">+</div>","null","html-keyboard-response","64","313449","0.0-6.0-0.29","JOSC","1","m","rechts","24","","fixation","","","",""
"1190","img/0_300.png","70","image-keyboard-response","65","314640","0.0-6.0-1.29","JOSC","1","m","rechts","24","","","self","f","0","true"
"null","<div style=""font-size:60px;"">+</div>","null","html-keyboard-response","66","315142","0.0-6.0-0.30","JOSC","1","m","rechts","24","","fixation","","","",""
"1207","img/L30_180.png","70","image-keyboard-response","67","316350","0.0-6.0-1.30","JOSC","1","m","rechts","24","","","self","f","30","true"
"null","<div style=""font-size:60px;"">+</div>","null","html-keyboard-response","68","316652","0.0-6.0-0.31","JOSC","1","m","rechts","24","","fixation","","","",""
"919","img/90_210.png","74","image-keyboard-response","69","317572","0.0-6.0-1.31","JOSC","1","m","rechts","24","","","self","j","90","true"
"null","<div style=""font-size:60px;"">+</div>","null","html-keyboard-response","70","318074","0.0-6.0-0.32","JOSC","1","m","rechts","24","","fixation","","","",""
"1095","img/150_300.png","70","image-keyboard-response","71","319170","0.0-6.0-1.32","JOSC","1","m","rechts","24","","","self","j","150","false"
"null","<div style=""font-size:60px;"">+</div>","null","html-keyboard-response","72","319672","0.0-6.0-0.33","JOSC","1","m","rechts","24","","fixation","","","",""
"1394","img/120_90.png","70","image-keyboard-response","73","321067","0.0-6.0-1.33","JOSC","1","m","rechts","24","","","self","f","120","true"
"null","<div style=""font-size:60px;"">+</div>","null","html-keyboard-response","74","321469","0.0-6.0-0.34","JOSC","1","m","rechts","24","","fixation","","","",""
"1355","img/150_180.png","74","image-keyboard-response","75","322826","0.0-6.0-1.34","JOSC","1","m","rechts","24","","","self","j","150","true"
"null","<div style=""font-size:60px;"">+</div>","null","html-keyboard-response","76","323227","0.0-6.0-0.35","JOSC","1","m","rechts","24","","fixation","","","",""
"971","img/90_30.png","74","image-keyboard-response","77","324200","0.0-6.0-1.35","JOSC","1","m","rechts","24","","","self","j","90","true"
"null","<div style=""font-size:60px;"">+</div>","null","html-keyboard-response","78","324702","0.0-6.0-0.36","JOSC","1","m","rechts","24","","fixation","","","",""
"1254","img/120_330.png","70","image-keyboard-response","79","325957","0.0-6.0-1.36","JOSC","1","m","rechts","24","","","self","f","120","true"
"null","<div style=""font-size:60px;"">+</div>","null","html-keyboard-response","80","326459","0.0-6.0-0.37","JOSC","1","m","rechts","24","","fixation","","","",""
"1262","img/90_60.png","70","image-keyboard-response","81","327722","0.0-6.0-1.37","JOSC","1","m","rechts","24","","","self","j","90","false"
"null","<div style=""font-size:60px;"">+</div>","null","html-keyboard-response","82","328024","0.0-6.0-0.38","JOSC","1","m","rechts","24","","fixation","","","",""
"2113","img/30_60.png","74","image-keyboard-response","83","330138","0.0-6.0-1.38","JOSC","1","m","rechts","24","","","self","j","30","true"
"null","<div style=""font-size:60px;"">+</div>","null","html-keyboard-response","84","330490","0.0-6.0-0.39","JOSC","1","m","rechts","24","","fixation","","","",""
"1388","img/60_180.png","74","image-keyboard-response","85","331879","0.0-6.0-1.39","JOSC","1","m","rechts","24","","","self","j","60","true"
"null","<div style=""font-size:60px;"">+</div>","null","html-keyboard-response","86","332181","0.0-6.0-0.40","JOSC","1","m","rechts","24","","fixation","","","",""
"1509","img/L60_180.png","70","image-keyboard-response","87","333691","0.0-6.0-1.40","JOSC","1","m","rechts","24","","","self","f","60","true"
"null","<div style=""font-size:60px;"">+</div>","null","html-keyboard-response","88","333993","0.0-6.0-0.41","JOSC","1","m","rechts","24","","fixation","","","",""
"819","img/0_30.png","74","image-keyboard-response","89","334813","0.0-6.0-1.41","JOSC","1","m","rechts","24","","","self","j","0","true"
"null","<div style=""font-size:60px;"">+</div>","null","html-keyboard-response","90","335264","0.0-6.0-0.42","JOSC","1","m","rechts","24","","fixation","","","",""
"1069","img/90_300.png","70","image-keyboard-response","91","336334","0.0-6.0-1.42","JOSC","1","m","rechts","24","","","self","f","90","true"
"null","<div style=""font-size:60px;"">+</div>","null","html-keyboard-response","92","336786","0.0-6.0-0.43","JOSC","1","m","rechts","24","","fixation","","","",""
"1246","img/90_180.png","74","image-keyboard-response","93","338033","0.0-6.0-1.43","JOSC","1","m","rechts","24","","","self","j","90","true"
"null","<div style=""font-size:60px;"">+</div>","null","html-keyboard-response","94","338484","0.0-6.0-0.44","JOSC","1","m","rechts","24","","fixation","","","",""
"1095","img/60_90.png","74","image-keyboard-response","95","339580","0.0-6.0-1.44","JOSC","1","m","rechts","24","","","self","j","60","true"
"null","<div style=""font-size:60px;"">+</div>","null","html-keyboard-response","96","339932","0.0-6.0-0.45","JOSC","1","m","rechts","24","","fixation","","","",""
"1065","img/0_330.png","70","image-keyboard-response","97","340998","0.0-6.0-1.45","JOSC","1","m","rechts","24","","","self","f","0","true"
"null","<div style=""font-size:60px;"">+</div>","null","html-keyboard-response","98","341349","0.0-6.0-0.46","JOSC","1","m","rechts","24","","fixation","","","",""
"1483","img/L120_180.png","70","image-keyboard-response","99","342834","0.0-6.0-1.46","JOSC","1","m","rechts","24","","","self","f","120","true"
"null","<div style=""font-size:60px;"">+</div>","null","html-keyboard-response","100","343185","0.0-6.0-0.47","JOSC","1","m","rechts","24","","fixation","","","",""
"1032","img/90_120.png","70","image-keyboard-response","101","344220","0.0-6.0-1.47","JOSC","1","m","rechts","24","","","self","f","90","true"
"null","<div style=""font-size:60px;"">+</div>","null","html-keyboard-response","102","344571","0.0-6.0-0.48","JOSC","1","m","rechts","24","","fixation","","","",""
"1066","img/0_240.png","70","image-keyboard-response","103","345638","0.0-6.0-1.48","JOSC","1","m","rechts","24","","","self","f","0","true"
"null","<div style=""font-size:60px;"">+</div>","null","html-keyboard-response","104","345940","0.0-6.0-0.49","JOSC","1","m","rechts","24","","fixation","","","",""
"1065","img/30_240.png","70","image-keyboard-response","105","347007","0.0-6.0-1.49","JOSC","1","m","rechts","24","","","self","f","30","true"
"null","<div style=""font-size:60px;"">+</div>","null","html-keyboard-response","106","347307","0.0-6.0-0.50","JOSC","1","m","rechts","24","","fixation","","","",""
"1190","img/60_330.png","70","image-keyboard-response","107","348499","0.0-6.0-1.50","JOSC","1","m","rechts","24","","","self","f","60","true"
"null","<div style=""font-size:60px;"">+</div>","null","html-keyboard-response","108","349000","0.0-6.0-0.51","JOSC","1","m","rechts","24","","fixation","","","",""
"1077","img/0_90.png","74","image-keyboard-response","109","350078","0.0-6.0-1.51","JOSC","1","m","rechts","24","","","self","j","0","true"
"null","<div style=""font-size:60px;"">+</div>","null","html-keyboard-response","110","350530","0.0-6.0-0.52","JOSC","1","m","rechts","24","","fixation","","","",""
"1308","img/60_30.png","74","image-keyboard-response","111","351838","0.0-6.0-1.52","JOSC","1","m","rechts","24","","","self","j","60","true"
"null","<div style=""font-size:60px;"">+</div>","null","html-keyboard-response","112","352339","0.0-6.0-0.53","JOSC","1","m","rechts","24","","fixation","","","",""
"1176","img/150_60.png","70","image-keyboard-response","113","353516","0.0-6.0-1.53","JOSC","1","m","rechts","24","","","self","f","150","true"
"null","<div style=""font-size:60px;"">+</div>","null","html-keyboard-response","114","353868","0.0-6.0-0.54","JOSC","1","m","rechts","24","","fixation","","","",""
"870","img/0_90.png","74","image-keyboard-response","115","354740","0.0-6.0-1.54","JOSC","1","m","rechts","24","","","self","j","0","true"
"null","<div style=""font-size:60px;"">+</div>","null","html-keyboard-response","116","355191","0.0-6.0-0.55","JOSC","1","m","rechts","24","","fixation","","","",""
"646","img/0_300.png","70","image-keyboard-response","117","355839","0.0-6.0-1.55","JOSC","1","m","rechts","24","","","self","f","0","true"
"null","<div style=""font-size:60px;"">+</div>","null","html-keyboard-response","118","356340","0.0-6.0-0.56","JOSC","1","m","rechts","24","","fixation","","","",""
"1110","img/30_60.png","74","image-keyboard-response","119","357451","0.0-6.0-1.56","JOSC","1","m","rechts","24","","","self","j","30","true"
"null","<div style=""font-size:60px;"">+</div>","null","html-keyboard-response","120","357803","0.0-6.0-0.57","JOSC","1","m","rechts","24","","fixation","","","",""
"906","img/L150_180.png","70","image-keyboard-response","121","358710","0.0-6.0-1.57","JOSC","1","m","rechts","24","","","self","f","150","true"
"null","<div style=""font-size:60px;"">+</div>","null","html-keyboard-response","122","359211","0.0-6.0-0.58","JOSC","1","m","rechts","24","","fixation","","","",""
"750","img/0_150.png","74","image-keyboard-response","123","359961","0.0-6.0-1.58","JOSC","1","m","rechts","24","","","self","j","0","true"
"null","<div style=""font-size:60px;"">+</div>","null","html-keyboard-response","124","360263","0.0-6.0-0.59","JOSC","1","m","rechts","24","","fixation","","","",""
"1240","img/120_30.png","74","image-keyboard-response","125","361503","0.0-6.0-1.59","JOSC","1","m","rechts","24","","","self","j","120","true"
"null","<div style=""font-size:60px;"">+</div>","null","html-keyboard-response","126","362005","0.0-6.0-0.60","JOSC","1","m","rechts","24","","fixation","","","",""
"1164","img/90_60.png","74","image-keyboard-response","127","363169","0.0-6.0-1.60","JOSC","1","m","rechts","24","","","self","j","90","true"
"null","<div style=""font-size:60px;"">+</div>","null","html-keyboard-response","128","363670","0.0-6.0-0.61","JOSC","1","m","rechts","24","","fixation","","","",""
"1082","img/60_270.png","70","image-keyboard-response","129","364753","0.0-6.0-1.61","JOSC","1","m","rechts","24","","","self","f","60","true"
"null","<div style=""font-size:60px;"">+</div>","null","html-keyboard-response","130","365154","0.0-6.0-0.62","JOSC","1","m","rechts","24","","fixation","","","",""
"788","img/0_270.png","70","image-keyboard-response","131","365943","0.0-6.0-1.62","JOSC","1","m","rechts","24","","","self","f","0","true"
"null","<div style=""font-size:60px;"">+</div>","null","html-keyboard-response","132","366395","0.0-6.0-0.63","JOSC","1","m","rechts","24","","fixation","","","",""
"700","img/0_60.png","70","image-keyboard-response","133","367095","0.0-6.0-1.63","JOSC","1","m","rechts","24","","","self","j","0","false"
"null","<div style=""font-size:60px;"">+</div>","null","html-keyboard-response","134","367597","0.0-6.0-0.64","JOSC","1","m","rechts","24","","fixation","","","",""
"1705","img/150_120.png","70","image-keyboard-response","135","369302","0.0-6.0-1.64","JOSC","1","m","rechts","24","","","self","f","150","true"
"null","<div style=""font-size:60px;"">+</div>","null","html-keyboard-response","136","369704","0.0-6.0-0.65","JOSC","1","m","rechts","24","","fixation","","","",""
"1321","img/150_90.png","70","image-keyboard-response","137","371026","0.0-6.0-1.65","JOSC","1","m","rechts","24","","","self","f","150","true"
"null","<div style=""font-size:60px;"">+</div>","null","html-keyboard-response","138","371478","0.0-6.0-0.66","JOSC","1","m","rechts","24","","fixation","","","",""
"1379","img/120_270.png","74","image-keyboard-response","139","372857","0.0-6.0-1.66","JOSC","1","m","rechts","24","","","self","j","120","true"
"null","<div style=""font-size:60px;"">+</div>","null","html-keyboard-response","140","373208","0.0-6.0-0.67","JOSC","1","m","rechts","24","","fixation","","","",""
"1071","img/90_180.png","74","image-keyboard-response","141","374280","0.0-6.0-1.67","JOSC","1","m","rechts","24","","","self","j","90","true"
"null","<div style=""font-size:60px;"">+</div>","null","html-keyboard-response","142","374731","0.0-6.0-0.68","JOSC","1","m","rechts","24","","fixation","","","",""
"937","img/90_300.png","70","image-keyboard-response","143","375669","0.0-6.0-1.68","JOSC","1","m","rechts","24","","","self","f","90","true"
"null","<div style=""font-size:60px;"">+</div>","null","html-keyboard-response","144","376071","0.0-6.0-0.69","JOSC","1","m","rechts","24","","fixation","","","",""
"885","img/0_30.png","74","image-keyboard-response","145","376956","0.0-6.0-1.69","JOSC","1","m","rechts","24","","","self","j","0","true"
"null","<div style=""font-size:60px;"">+</div>","null","html-keyboard-response","146","377307","0.0-6.0-0.70","JOSC","1","m","rechts","24","","fixation","","","",""
"1074","img/L120_180.png","70","image-keyboard-response","147","378382","0.0-6.0-1.70","JOSC","1","m","rechts","24","","","self","f","120","true"
"null","<div style=""font-size:60px;"">+</div>","null","html-keyboard-response","148","378684","0.0-6.0-0.71","JOSC","1","m","rechts","24","","fixation","","","",""
"989","img/120_210.png","74","image-keyboard-response","149","379673","0.0-6.0-1.71","JOSC","1","m","rechts","24","","","self","j","120","true"
"null","<div style=""font-size:60px;"">+</div>","null","html-keyboard-response","150","380175","0.0-6.0-0.72","JOSC","1","m","rechts","24","","fixation","","","",""
"1763","img/90_210.png","74","image-keyboard-response","151","381938","0.0-6.0-1.72","JOSC","1","m","rechts","24","","","self","j","90","true"
"null","<div style=""font-size:60px;"">+</div>","null","html-keyboard-response","152","382240","0.0-6.0-0.73","JOSC","1","m","rechts","24","","fixation","","","",""
"1344","img/150_300.png","74","image-keyboard-response","153","383585","0.0-6.0-1.73","JOSC","1","m","rechts","24","","","self","j","150","true"
"null","<div style=""font-size:60px;"">+</div>","null","html-keyboard-response","154","383986","0.0-6.0-0.74","JOSC","1","m","rechts","24","","fixation","","","",""
"1018","img/L30_180.png","70","image-keyboard-response","155","385005","0.0-6.0-1.74","JOSC","1","m","rechts","24","","","self","f","30","true"
"null","<div style=""font-size:60px;"">+</div>","null","html-keyboard-response","156","385507","0.0-6.0-0.75","JOSC","1","m","rechts","24","","fixation","","","",""
"1244","img/120_150.png","70","image-keyboard-response","157","386753","0.0-6.0-1.75","JOSC","1","m","rechts","24","","","self","f","120","true"
"null","<div style=""font-size:60px;"">+</div>","null","html-keyboard-response","158","387254","0.0-6.0-0.76","JOSC","1","m","rechts","24","","fixation","","","",""
"952","img/60_330.png","74","image-keyboard-response","159","388208","0.0-6.0-1.76","JOSC","1","m","rechts","24","","","self","f","60","false"
"null","<div style=""font-size:60px;"">+</div>","null","html-keyboard-response","160","388558","0.0-6.0-0.77","JOSC","1","m","rechts","24","","fixation","","","",""
"985","img/0_120.png","74","image-keyboard-response","161","389544","0.0-6.0-1.77","JOSC","1","m","rechts","24","","","self","j","0","true"
"null","<div style=""font-size:60px;"">+</div>","null","html-keyboard-response","162","389845","0.0-6.0-0.78","JOSC","1","m","rechts","24","","fixation","","","",""
"1492","img/60_150.png","70","image-keyboard-response","163","391338","0.0-6.0-1.78","JOSC","1","m","rechts","24","","","self","f","60","true"
"null","<div style=""font-size:60px;"">+</div>","null","html-keyboard-response","164","391739","0.0-6.0-0.79","JOSC","1","m","rechts","24","","fixation","","","",""
"1193","img/30_240.png","70","image-keyboard-response","165","392934","0.0-6.0-1.79","JOSC","1","m","rechts","24","","","self","f","30","true"
"null","<div style=""font-size:60px;"">+</div>","null","html-keyboard-response","166","393285","0.0-6.0-0.80","JOSC","1","m","rechts","24","","fixation","","","",""
"871","img/30_270.png","70","image-keyboard-response","167","394158","0.0-6.0-1.80","JOSC","1","m","rechts","24","","","self","f","30","true"
"null","<div style=""font-size:60px;"">+</div>","null","html-keyboard-response","168","394459","0.0-6.0-0.81","JOSC","1","m","rechts","24","","fixation","","","",""
"1234","img/30_120.png","74","image-keyboard-response","169","395694","0.0-6.0-1.81","JOSC","1","m","rechts","24","","","self","j","30","true"
"null","<div style=""font-size:60px;"">+</div>","null","html-keyboard-response","170","396196","0.0-6.0-0.82","JOSC","1","m","rechts","24","","fixation","","","",""
"938","img/0_330.png","70","image-keyboard-response","171","397135","0.0-6.0-1.82","JOSC","1","m","rechts","24","","","self","f","0","true"
"null","<div style=""font-size:60px;"">+</div>","null","html-keyboard-response","172","397637","0.0-6.0-0.83","JOSC","1","m","rechts","24","","fixation","","","",""
"1261","img/150_180.png","74","image-keyboard-response","173","398900","0.0-6.0-1.83","JOSC","1","m","rechts","24","","","self","j","150","true"
"null","<div style=""font-size:60px;"">+</div>","null","html-keyboard-response","174","399201","0.0-6.0-0.84","JOSC","1","m","rechts","24","","fixation","","","",""
"1191","img/90_330.png","70","image-keyboard-response","175","400393","0.0-6.0-1.84","JOSC","1","m","rechts","24","","","self","f","90","true"
"null","<div style=""font-size:60px;"">+</div>","null","html-keyboard-response","176","400845","0.0-6.0-0.85","JOSC","1","m","rechts","24","","fixation","","","",""
"1227","img/120_180.png","74","image-keyboard-response","177","402073","0.0-6.0-1.85","JOSC","1","m","rechts","24","","","self","j","120","true"
"null","<div style=""font-size:60px;"">+</div>","null","html-keyboard-response","178","402375","0.0-6.0-0.86","JOSC","1","m","rechts","24","","fixation","","","",""
"1754","img/30_300.png","70","image-keyboard-response","179","404130","0.0-6.0-1.86","JOSC","1","m","rechts","24","","","self","f","30","true"
"null","<div style=""font-size:60px;"">+</div>","null","html-keyboard-response","180","404581","0.0-6.0-0.87","JOSC","1","m","rechts","24","","fixation","","","",""
"972","img/90_240.png","74","image-keyboard-response","181","405554","0.0-6.0-1.87","JOSC","1","m","rechts","24","","","self","j","90","true"
"null","<div style=""font-size:60px;"">+</div>","null","html-keyboard-response","182","405906","0.0-6.0-0.88","JOSC","1","m","rechts","24","","fixation","","","",""
"910","img/L90_180.png","70","image-keyboard-response","183","406817","0.0-6.0-1.88","JOSC","1","m","rechts","24","","","self","f","90","true"
"null","<div style=""font-size:60px;"">+</div>","null","html-keyboard-response","184","407269","0.0-6.0-0.89","JOSC","1","m","rechts","24","","fixation","","","",""
"1123","img/120_330.png","74","image-keyboard-response","185","408393","0.0-6.0-1.89","JOSC","1","m","rechts","24","","","self","f","120","false"
"null","<div style=""font-size:60px;"">+</div>","null","html-keyboard-response","186","408845","0.0-6.0-0.90","JOSC","1","m","rechts","24","","fixation","","","",""
"1380","img/L60_180.png","70","image-keyboard-response","187","410225","0.0-6.0-1.90","JOSC","1","m","rechts","24","","","self","f","60","true"
"null","<div style=""font-size:60px;"">+</div>","null","html-keyboard-response","188","410726","0.0-6.0-0.91","JOSC","1","m","rechts","24","","fixation","","","",""
"955","img/90_120.png","70","image-keyboard-response","189","411682","0.0-6.0-1.91","JOSC","1","m","rechts","24","","","self","f","90","true"
"null","<div style=""font-size:60px;"">+</div>","null","html-keyboard-response","190","412183","0.0-6.0-0.92","JOSC","1","m","rechts","24","","fixation","","","",""
"1005","img/60_90.png","74","image-keyboard-response","191","413189","0.0-6.0-1.92","JOSC","1","m","rechts","24","","","self","j","60","true"
"null","<div style=""font-size:60px;"">+</div>","null","html-keyboard-response","192","413691","0.0-6.0-0.93","JOSC","1","m","rechts","24","","fixation","","","",""
"1083","img/60_180.png","74","image-keyboard-response","193","414774","0.0-6.0-1.93","JOSC","1","m","rechts","24","","","self","j","60","true"
"null","<div style=""font-size:60px;"">+</div>","null","html-keyboard-response","194","415175","0.0-6.0-0.94","JOSC","1","m","rechts","24","","fixation","","","",""
"941","img/90_150.png","70","image-keyboard-response","195","416117","0.0-6.0-1.94","JOSC","1","m","rechts","24","","","self","f","90","true"
"null","<div style=""font-size:60px;"">+</div>","null","html-keyboard-response","196","416569","0.0-6.0-0.95","JOSC","1","m","rechts","24","","fixation","","","",""
"1197","img/90_30.png","74","image-keyboard-response","197","417766","0.0-6.0-1.95","JOSC","1","m","rechts","24","","","self","j","90","true"
"null","<div style=""font-size:60px;"">+</div>","null","html-keyboard-response","198","418068","0.0-6.0-0.96","JOSC","1","m","rechts","24","","fixation","","","",""
"1224","img/60_210.png","74","image-keyboard-response","199","419292","0.0-6.0-1.96","JOSC","1","m","rechts","24","","","self","j","60","true"
"null","<div style=""font-size:60px;"">+</div>","null","html-keyboard-response","200","419693","0.0-6.0-0.97","JOSC","1","m","rechts","24","","fixation","","","",""
"1260","img/0_210.png","70","image-keyboard-response","201","420954","0.0-6.0-1.97","JOSC","1","m","rechts","24","","","self","f","0","true"
"null","<div style=""font-size:60px;"">+</div>","null","html-keyboard-response","202","421356","0.0-6.0-0.98","JOSC","1","m","rechts","24","","fixation","","","",""
"1289","img/30_90.png","74","image-keyboard-response","203","422646","0.0-6.0-1.98","JOSC","1","m","rechts","24","","","self","j","30","true"
"null","<div style=""font-size:60px;"">+</div>","null","html-keyboard-response","204","423097","0.0-6.0-0.99","JOSC","1","m","rechts","24","","fixation","","","",""
"1305","img/150_270.png","74","image-keyboard-response","205","424403","0.0-6.0-1.99","JOSC","1","m","rechts","24","","","self","j","150","true"
"null","<div style=""font-size:60px;"">+</div>","null","html-keyboard-response","206","424854","0.0-6.0-0.100","JOSC","1","m","rechts","24","","fixation","","","",""
"1103","img/30_180.png","74","image-keyboard-response","207","425959","0.0-6.0-1.100","JOSC","1","m","rechts","24","","","self","j","30","true"
"null","<div style=""font-size:60px;"">+</div>","null","html-keyboard-response","208","426260","0.0-6.0-0.101","JOSC","1","m","rechts","24","","fixation","","","",""
"1559","img/150_240.png","74","image-keyboard-response","209","427820","0.0-6.0-1.101","JOSC","1","m","rechts","24","","","self","j","150","true"
"null","<div style=""font-size:60px;"">+</div>","null","html-keyboard-response","210","428172","0.0-6.0-0.102","JOSC","1","m","rechts","24","","fixation","","","",""
"1975","img/120_90.png","70","image-keyboard-response","211","430148","0.0-6.0-1.102","JOSC","1","m","rechts","24","","","self","f","120","true"
"null","<div style=""font-size:60px;"">+</div>","null","html-keyboard-response","212","430499","0.0-6.0-0.103","JOSC","1","m","rechts","24","","fixation","","","",""
"1012","img/0_240.png","70","image-keyboard-response","213","431512","0.0-6.0-1.103","JOSC","1","m","rechts","24","","","self","f","0","true"
"null","<div style=""font-size:60px;"">+</div>","null","html-keyboard-response","214","431914","0.0-6.0-0.104","JOSC","1","m","rechts","24","","fixation","","","",""
"985","img/0_90.png","74","image-keyboard-response","215","432901","0.0-6.0-1.104","JOSC","1","m","rechts","24","","","self","j","0","true"
"null","<div style=""font-size:60px;"">+</div>","null","html-keyboard-response","216","433402","0.0-6.0-0.105","JOSC","1","m","rechts","24","","fixation","","","",""
"999","img/0_300.png","70","image-keyboard-response","217","434402","0.0-6.0-1.105","JOSC","1","m","rechts","24","","","self","f","0","true"
"null","<div style=""font-size:60px;"">+</div>","null","html-keyboard-response","218","434903","0.0-6.0-0.106","JOSC","1","m","rechts","24","","fixation","","","",""
"1011","img/0_240.png","70","image-keyboard-response","219","435915","0.0-6.0-1.106","JOSC","1","m","rechts","24","","","self","f","0","true"
"null","<div style=""font-size:60px;"">+</div>","null","html-keyboard-response","220","436367","0.0-6.0-0.107","JOSC","1","m","rechts","24","","fixation","","","",""
"1406","img/L150_180.png","70","image-keyboard-response","221","437775","0.0-6.0-1.107","JOSC","1","m","rechts","24","","","self","f","150","true"
"null","<div style=""font-size:60px;"">+</div>","null","html-keyboard-response","222","438225","0.0-6.0-0.108","JOSC","1","m","rechts","24","","fixation","","","",""
"953","img/L120_180.png","70","image-keyboard-response","223","439179","0.0-6.0-1.108","JOSC","1","m","rechts","24","","","self","f","120","true"
"null","<div style=""font-size:60px;"">+</div>","null","html-keyboard-response","224","439581","0.0-6.0-0.109","JOSC","1","m","rechts","24","","fixation","","","",""
"901","img/90_180.png","74","image-keyboard-response","225","440483","0.0-6.0-1.109","JOSC","1","m","rechts","24","","","self","j","90","true"
"null","<div style=""font-size:60px;"">+</div>","null","html-keyboard-response","226","440985","0.0-6.0-0.110","JOSC","1","m","rechts","24","","fixation","","","",""
"832","img/60_270.png","70","image-keyboard-response","227","441818","0.0-6.0-1.110","JOSC","1","m","rechts","24","","","self","f","60","true"
"null","<div style=""font-size:60px;"">+</div>","null","html-keyboard-response","228","442170","0.0-6.0-0.111","JOSC","1","m","rechts","24","","fixation","","","",""
"828","img/120_90.png","70","image-keyboard-response","229","442999","0.0-6.0-1.111","JOSC","1","m","rechts","24","","","self","f","120","true"
"null","<div style=""font-size:60px;"">+</div>","null","html-keyboard-response","230","443500","0.0-6.0-0.112","JOSC","1","m","rechts","24","","fixation","","","",""
"901","img/60_330.png","70","image-keyboard-response","231","444401","0.0-6.0-1.112","JOSC","1","m","rechts","24","","","self","f","60","true"
"null","<div style=""font-size:60px;"">+</div>","null","html-keyboard-response","232","444753","0.0-6.0-0.113","JOSC","1","m","rechts","24","","fixation","","","",""
"972","img/0_30.png","74","image-keyboard-response","233","445726","0.0-6.0-1.113","JOSC","1","m","rechts","24","","","self","j","0","true"
"null","<div style=""font-size:60px;"">+</div>","null","html-keyboard-response","234","446178","0.0-6.0-0.114","JOSC","1","m","rechts","24","","fixation","","","",""
"777","img/0_150.png","74","image-keyboard-response","235","446955","0.0-6.0-1.114","JOSC","1","m","rechts","24","","","self","j","0","true"
"null","<div style=""font-size:60px;"">+</div>","null","html-keyboard-response","236","447357","0.0-6.0-0.115","JOSC","1","m","rechts","24","","fixation","","","",""
"1181","img/120_30.png","74","image-keyboard-response","237","448539","0.0-6.0-1.115","JOSC","1","m","rechts","24","","","self","j","120","true"
"null","<div style=""font-size:60px;"">+</div>","null","html-keyboard-response","238","448990","0.0-6.0-0.116","JOSC","1","m","rechts","24","","fixation","","","",""
"1056","img/0_210.png","70","image-keyboard-response","239","450047","0.0-6.0-1.116","JOSC","1","m","rechts","24","","","self","f","0","true"
"null","<div style=""font-size:60px;"">+</div>","null","html-keyboard-response","240","450498","0.0-6.0-0.117","JOSC","1","m","rechts","24","","fixation","","","",""
"1346","img/150_240.png","74","image-keyboard-response","241","451845","0.0-6.0-1.117","JOSC","1","m","rechts","24","","","self","j","150","true"
"null","<div style=""font-size:60px;"">+</div>","null","html-keyboard-response","242","452247","0.0-6.0-0.118","JOSC","1","m","rechts","24","","fixation","","","",""
"1306","img/120_150.png","70","image-keyboard-response","243","453554","0.0-6.0-1.118","JOSC","1","m","rechts","24","","","self","f","120","true"
"null","<div style=""font-size:60px;"">+</div>","null","html-keyboard-response","244","454055","0.0-6.0-0.119","JOSC","1","m","rechts","24","","fixation","","","",""
"1239","img/30_240.png","70","image-keyboard-response","245","455294","0.0-6.0-1.119","JOSC","1","m","rechts","24","","","self","f","30","true"
"null","<div style=""font-size:60px;"">+</div>","null","html-keyboard-response","246","455595","0.0-6.0-0.120","JOSC","1","m","rechts","24","","fixation","","","",""
"1396","img/120_270.png","74","image-keyboard-response","247","456992","0.0-6.0-1.120","JOSC","1","m","rechts","24","","","self","j","120","true"
"null","<div style=""font-size:60px;"">+</div>","null","html-keyboard-response","248","457394","0.0-6.0-0.121","JOSC","1","m","rechts","24","","fixation","","","",""
"1149","img/150_180.png","74","image-keyboard-response","249","458543","0.0-6.0-1.121","JOSC","1","m","rechts","24","","","self","j","150","true"
"null","<div style=""font-size:60px;"">+</div>","null","html-keyboard-response","250","458994","0.0-6.0-0.122","JOSC","1","m","rechts","24","","fixation","","","",""
"1083","img/60_90.png","74","image-keyboard-response","251","460078","0.0-6.0-1.122","JOSC","1","m","rechts","24","","","self","j","60","true"
"null","<div style=""font-size:60px;"">+</div>","null","html-keyboard-response","252","460530","0.0-6.0-0.123","JOSC","1","m","rechts","24","","fixation","","","",""
"1174","img/30_300.png","70","image-keyboard-response","253","461704","0.0-6.0-1.123","JOSC","1","m","rechts","24","","","self","f","30","true"
"null","<div style=""font-size:60px;"">+</div>","null","html-keyboard-response","254","462106","0.0-6.0-0.124","JOSC","1","m","rechts","24","","fixation","","","",""
"940","img/0_120.png","74","image-keyboard-response","255","463047","0.0-6.0-1.124","JOSC","1","m","rechts","24","","","self","j","0","true"
"null","<div style=""font-size:60px;"">+</div>","null","html-keyboard-response","256","463398","0.0-6.0-0.125","JOSC","1","m","rechts","24","","fixation","","","",""
"1063","img/30_180.png","74","image-keyboard-response","257","464462","0.0-6.0-1.125","JOSC","1","m","rechts","24","","","self","j","30","true"
"null","<div style=""font-size:60px;"">+</div>","null","html-keyboard-response","258","464964","0.0-6.0-0.126","JOSC","1","m","rechts","24","","fixation","","","",""
"1130","img/90_30.png","74","image-keyboard-response","259","466094","0.0-6.0-1.126","JOSC","1","m","rechts","24","","","self","j","90","true"
"null","<div style=""font-size:60px;"">+</div>","null","html-keyboard-response","260","466546","0.0-6.0-0.127","JOSC","1","m","rechts","24","","fixation","","","",""
"959","img/60_210.png","74","image-keyboard-response","261","467507","0.0-6.0-1.127","JOSC","1","m","rechts","24","","","self","j","60","true"
"null","<div style=""font-size:60px;"">+</div>","null","html-keyboard-response","262","467908","0.0-6.0-0.128","JOSC","1","m","rechts","24","","fixation","","","",""
"1075","img/150_270.png","74","image-keyboard-response","263","468984","0.0-6.0-1.128","JOSC","1","m","rechts","24","","","self","j","150","true"
"null","<div style=""font-size:60px;"">+</div>","null","html-keyboard-response","264","469336","0.0-6.0-0.129","JOSC","1","m","rechts","24","","fixation","","","",""
"982","img/L90_180.png","70","image-keyboard-response","265","470320","0.0-6.0-1.129","JOSC","1","m","rechts","24","","","self","f","90","true"
"null","<div style=""font-size:60px;"">+</div>","null","html-keyboard-response","266","470821","0.0-6.0-0.130","JOSC","1","m","rechts","24","","fixation","","","",""
"971","img/30_120.png","74","image-keyboard-response","267","471794","0.0-6.0-1.130","JOSC","1","m","rechts","24","","","self","j","30","true"
"null","<div style=""font-size:60px;"">+</div>","null","html-keyboard-response","268","472245","0.0-6.0-0.131","JOSC","1","m","rechts","24","","fixation","","","",""
"921","img/30_60.png","74","image-keyboard-response","269","473168","0.0-6.0-1.131","JOSC","1","m","rechts","24","","","self","j","30","true"
"null","<div style=""font-size:60px;"">+</div>","null","html-keyboard-response","270","473519","0.0-6.0-0.132","JOSC","1","m","rechts","24","","fixation","","","",""
"948","img/120_180.png","74","image-keyboard-response","271","474468","0.0-6.0-1.132","JOSC","1","m","rechts","24","","","self","j","120","true"
"null","<div style=""font-size:60px;"">+</div>","null","html-keyboard-response","272","474770","0.0-6.0-0.133","JOSC","1","m","rechts","24","","fixation","","","",""
"1136","img/L30_180.png","70","image-keyboard-response","273","475907","0.0-6.0-1.133","JOSC","1","m","rechts","24","","","self","f","30","true"
"null","<div style=""font-size:60px;"">+</div>","null","html-keyboard-response","274","476208","0.0-6.0-0.134","JOSC","1","m","rechts","24","","fixation","","","",""
"970","img/60_30.png","74","image-keyboard-response","275","477180","0.0-6.0-1.134","JOSC","1","m","rechts","24","","","self","j","60","true"
"null","<div style=""font-size:60px;"">+</div>","null","html-keyboard-response","276","477681","0.0-6.0-0.135","JOSC","1","m","rechts","24","","fixation","","","",""
"896","img/90_120.png","70","image-keyboard-response","277","478578","0.0-6.0-1.135","JOSC","1","m","rechts","24","","","self","f","90","true"
"null","<div style=""font-size:60px;"">+</div>","null","html-keyboard-response","278","479029","0.0-6.0-0.136","JOSC","1","m","rechts","24","","fixation","","","",""
"1071","img/150_90.png","70","image-keyboard-response","279","480101","0.0-6.0-1.136","JOSC","1","m","rechts","24","","","self","f","150","true"
"null","<div style=""font-size:60px;"">+</div>","null","html-keyboard-response","280","480453","0.0-6.0-0.137","JOSC","1","m","rechts","24","","fixation","","","",""
"884","img/30_90.png","74","image-keyboard-response","281","481338","0.0-6.0-1.137","JOSC","1","m","rechts","24","","","self","j","30","true"
"null","<div style=""font-size:60px;"">+</div>","null","html-keyboard-response","282","481690","0.0-6.0-0.138","JOSC","1","m","rechts","24","","fixation","","","",""
"1300","img/90_300.png","70","image-keyboard-response","283","482991","0.0-6.0-1.138","JOSC","1","m","rechts","24","","","self","f","90","true"
"null","<div style=""font-size:60px;"">+</div>","null","html-keyboard-response","284","483393","0.0-6.0-0.139","JOSC","1","m","rechts","24","","fixation","","","",""
"888","img/0_330.png","70","image-keyboard-response","285","484282","0.0-6.0-1.139","JOSC","1","m","rechts","24","","","self","f","0","true"
"null","<div style=""font-size:60px;"">+</div>","null","html-keyboard-response","286","484734","0.0-6.0-0.140","JOSC","1","m","rechts","24","","fixation","","","",""
"910","img/L60_180.png","70","image-keyboard-response","287","485644","0.0-6.0-1.140","JOSC","1","m","rechts","24","","","self","f","60","true"
"null","<div style=""font-size:60px;"">+</div>","null","html-keyboard-response","288","486046","0.0-6.0-0.141","JOSC","1","m","rechts","24","","fixation","","","",""
"969","img/90_210.png","74","image-keyboard-response","289","487016","0.0-6.0-1.141","JOSC","1","m","rechts","24","","","self","j","90","true"
"null","<div style=""font-size:60px;"">+</div>","null","html-keyboard-response","290","487517","0.0-6.0-0.142","JOSC","1","m","rechts","24","","fixation","","","",""
"1306","img/60_180.png","74","image-keyboard-response","291","488824","0.0-6.0-1.142","JOSC","1","m","rechts","24","","","self","j","60","true"
"null","<div style=""font-size:60px;"">+</div>","null","html-keyboard-response","292","489126","0.0-6.0-0.143","JOSC","1","m","rechts","24","","fixation","","","",""
"1323","img/150_300.png","74","image-keyboard-response","293","490449","0.0-6.0-1.143","JOSC","1","m","rechts","24","","","self","j","150","true"
"null","<div style=""font-size:60px;"">+</div>","null","html-keyboard-response","294","490851","0.0-6.0-0.144","JOSC","1","m","rechts","24","","fixation","","","",""
"1062","img/90_150.png","70","image-keyboard-response","295","491914","0.0-6.0-1.144","JOSC","1","m","rechts","24","","","self","f","90","true"
"null","<div style=""font-size:60px;"">+</div>","null","html-keyboard-response","296","492315","0.0-6.0-0.145","JOSC","1","m","rechts","24","","fixation","","","",""
"1000","img/30_270.png","70","image-keyboard-response","297","493316","0.0-6.0-1.145","JOSC","1","m","rechts","24","","","self","f","30","true"
"null","<div style=""font-size:60px;"">+</div>","null","html-keyboard-response","298","493668","0.0-6.0-0.146","JOSC","1","m","rechts","24","","fixation","","","",""
"996","img/90_60.png","74","image-keyboard-response","299","494664","0.0-6.0-1.146","JOSC","1","m","rechts","24","","","self","j","90","true"
"null","<div style=""font-size:60px;"">+</div>","null","html-keyboard-response","300","495065","0.0-6.0-0.147","JOSC","1","m","rechts","24","","fixation","","","",""
"977","img/90_330.png","70","image-keyboard-response","301","496043","0.0-6.0-1.147","JOSC","1","m","rechts","24","","","self","f","90","true"
"null","<div style=""font-size:60px;"">+</div>","null","html-keyboard-response","302","496494","0.0-6.0-0.148","JOSC","1","m","rechts","24","","fixation","","","",""
"1016","img/120_330.png","70","image-keyboard-response","303","497511","0.0-6.0-1.148","JOSC","1","m","rechts","24","","","self","f","120","true"
"null","<div style=""font-size:60px;"">+</div>","null","html-keyboard-response","304","498011","0.0-6.0-0.149","JOSC","1","m","rechts","24","","fixation","","","",""
"1075","img/150_120.png","74","image-keyboard-response","305","499087","0.0-6.0-1.149","JOSC","1","m","rechts","24","","","self","f","150","false"
"null","<div style=""font-size:60px;"">+</div>","null","html-keyboard-response","306","499388","0.0-6.0-0.150","JOSC","1","m","rechts","24","","fixation","","","",""
"1246","img/90_240.png","74","image-keyboard-response","307","500636","0.0-6.0-1.150","JOSC","1","m","rechts","24","","","self","j","90","true"
"null","<div style=""font-size:60px;"">+</div>","null","html-keyboard-response","308","501037","0.0-6.0-0.151","JOSC","1","m","rechts","24","","fixation","","","",""
"874","img/60_150.png","70","image-keyboard-response","309","501912","0.0-6.0-1.151","JOSC","1","m","rechts","24","","","self","f","60","true"
"null","<div style=""font-size:60px;"">+</div>","null","html-keyboard-response","310","502364","0.0-6.0-0.152","JOSC","1","m","rechts","24","","fixation","","","",""
"1065","img/120_210.png","74","image-keyboard-response","311","503429","0.0-6.0-1.152","JOSC","1","m","rechts","24","","","self","j","120","true"
"null","<div style=""font-size:60px;"">+</div>","null","html-keyboard-response","312","503780","0.0-6.0-0.153","JOSC","1","m","rechts","24","","fixation","","","",""
"859","img/0_270.png","70","image-keyboard-response","313","504641","0.0-6.0-1.153","JOSC","1","m","rechts","24","","","self","f","0","true"
"null","<div style=""font-size:60px;"">+</div>","null","html-keyboard-response","314","505142","0.0-6.0-0.154","JOSC","1","m","rechts","24","","fixation","","","",""
"724","img/0_60.png","74","image-keyboard-response","315","505868","0.0-6.0-1.154","JOSC","1","m","rechts","24","","","self","j","0","true"
"null","<div style=""font-size:60px;"">+</div>","null","html-keyboard-response","316","506169","0.0-6.0-0.155","JOSC","1","m","rechts","24","","fixation","","","",""
"854","img/150_60.png","70","image-keyboard-response","317","507024","0.0-6.0-1.155","JOSC","1","m","rechts","24","","","self","f","150","true"
"null","<div style=""font-size:60px;"">+</div>","null","html-keyboard-response","318","507475","0.0-6.0-0.156","JOSC","1","m","rechts","24","","fixation","","","",""
"988","img/60_210.png","74","image-keyboard-response","319","508463","0.0-6.0-1.156","JOSC","1","m","rechts","24","","","self","j","60","true"
"null","<div style=""font-size:60px;"">+</div>","null","html-keyboard-response","320","508965","0.0-6.0-0.157","JOSC","1","m","rechts","24","","fixation","","","",""
"1002","img/0_30.png","74","image-keyboard-response","321","509969","0.0-6.0-1.157","JOSC","1","m","rechts","24","","","self","j","0","true"
"null","<div style=""font-size:60px;"">+</div>","null","html-keyboard-response","322","510420","0.0-6.0-0.158","JOSC","1","m","rechts","24","","fixation","","","",""
"791","img/0_240.png","70","image-keyboard-response","323","511212","0.0-6.0-1.158","JOSC","1","m","rechts","24","","","self","f","0","true"
"null","<div style=""font-size:60px;"">+</div>","null","html-keyboard-response","324","511663","0.0-6.0-0.159","JOSC","1","m","rechts","24","","fixation","","","",""
"580","img/0_270.png","70","image-keyboard-response","325","512244","0.0-6.0-1.159","JOSC","1","m","rechts","24","","","self","f","0","true"
"null","<div style=""font-size:60px;"">+</div>","null","html-keyboard-response","326","512546","0.0-6.0-0.160","JOSC","1","m","rechts","24","","fixation","","","",""
"1754","img/L30_180.png","70","image-keyboard-response","327","514301","0.0-6.0-1.160","JOSC","1","m","rechts","24","","","self","f","30","true"
"null","<div style=""font-size:60px;"">+</div>","null","html-keyboard-response","328","514703","0.0-6.0-0.161","JOSC","1","m","rechts","24","","fixation","","","",""
"1008","img/60_180.png","74","image-keyboard-response","329","515712","0.0-6.0-1.161","JOSC","1","m","rechts","24","","","self","j","60","true"
"null","<div style=""font-size:60px;"">+</div>","null","html-keyboard-response","330","516114","0.0-6.0-0.162","JOSC","1","m","rechts","24","","fixation","","","",""
"980","img/120_210.png","74","image-keyboard-response","331","517095","0.0-6.0-1.162","JOSC","1","m","rechts","24","","","self","j","120","true"
"null","<div style=""font-size:60px;"">+</div>","null","html-keyboard-response","332","517397","0.0-6.0-0.163","JOSC","1","m","rechts","24","","fixation","","","",""
"1552","img/150_300.png","74","image-keyboard-response","333","518950","0.0-6.0-1.163","JOSC","1","m","rechts","24","","","self","j","150","true"
"null","<div style=""font-size:60px;"">+</div>","null","html-keyboard-response","334","519252","0.0-6.0-0.164","JOSC","1","m","rechts","24","","fixation","","","",""
"1063","img/60_90.png","74","image-keyboard-response","335","520316","0.0-6.0-1.164","JOSC","1","m","rechts","24","","","self","j","60","true"
"null","<div style=""font-size:60px;"">+</div>","null","html-keyboard-response","336","520718","0.0-6.0-0.165","JOSC","1","m","rechts","24","","fixation","","","",""
"815","img/60_330.png","70","image-keyboard-response","337","521534","0.0-6.0-1.165","JOSC","1","m","rechts","24","","","self","f","60","true"
"null","<div style=""font-size:60px;"">+</div>","null","html-keyboard-response","338","521986","0.0-6.0-0.166","JOSC","1","m","rechts","24","","fixation","","","",""
"974","img/150_120.png","70","image-keyboard-response","339","522961","0.0-6.0-1.166","JOSC","1","m","rechts","24","","","self","f","150","true"
"null","<div style=""font-size:60px;"">+</div>","null","html-keyboard-response","340","523363","0.0-6.0-0.167","JOSC","1","m","rechts","24","","fixation","","","",""
"912","img/90_30.png","74","image-keyboard-response","341","524275","0.0-6.0-1.167","JOSC","1","m","rechts","24","","","self","j","90","true"
"null","<div style=""font-size:60px;"">+</div>","null","html-keyboard-response","342","524777","0.0-6.0-0.168","JOSC","1","m","rechts","24","","fixation","","","",""
"808","img/90_120.png","70","image-keyboard-response","343","525586","0.0-6.0-1.168","JOSC","1","m","rechts","24","","","self","f","90","true"
"null","<div style=""font-size:60px;"">+</div>","null","html-keyboard-response","344","525938","0.0-6.0-0.169","JOSC","1","m","rechts","24","","fixation","","","",""
"1070","img/30_300.png","74","image-keyboard-response","345","527009","0.0-6.0-1.169","JOSC","1","m","rechts","24","","","self","f","30","false"
"null","<div style=""font-size:60px;"">+</div>","null","html-keyboard-response","346","527511","0.0-6.0-0.170","JOSC","1","m","rechts","24","","fixation","","","",""
"1205","img/30_120.png","74","image-keyboard-response","347","528717","0.0-6.0-1.170","JOSC","1","m","rechts","24","","","self","j","30","true"
"null","<div style=""font-size:60px;"">+</div>","null","html-keyboard-response","348","529018","0.0-6.0-0.171","JOSC","1","m","rechts","24","","fixation","","","",""
"1075","img/120_90.png","70","image-keyboard-response","349","530094","0.0-6.0-1.171","JOSC","1","m","rechts","24","","","self","f","120","true"
"null","<div style=""font-size:60px;"">+</div>","null","html-keyboard-response","350","530495","0.0-6.0-0.172","JOSC","1","m","rechts","24","","fixation","","","",""
"1028","img/60_150.png","70","image-keyboard-response","351","531524","0.0-6.0-1.172","JOSC","1","m","rechts","24","","","self","f","60","true"
"null","<div style=""font-size:60px;"">+</div>","null","html-keyboard-response","352","531876","0.0-6.0-0.173","JOSC","1","m","rechts","24","","fixation","","","",""
"1075","img/120_30.png","74","image-keyboard-response","353","532951","0.0-6.0-1.173","JOSC","1","m","rechts","24","","","self","j","120","true"
"null","<div style=""font-size:60px;"">+</div>","null","html-keyboard-response","354","533253","0.0-6.0-0.174","JOSC","1","m","rechts","24","","fixation","","","",""
"1062","img/150_180.png","74","image-keyboard-response","355","534316","0.0-6.0-1.174","JOSC","1","m","rechts","24","","","self","j","150","true"
"null","<div style=""font-size:60px;"">+</div>","null","html-keyboard-response","356","534718","0.0-6.0-0.175","JOSC","1","m","rechts","24","","fixation","","","",""
"1231","img/30_270.png","70","image-keyboard-response","357","535950","0.0-6.0-1.175","JOSC","1","m","rechts","24","","","self","f","30","true"
"null","<div style=""font-size:60px;"">+</div>","null","html-keyboard-response","358","536402","0.0-6.0-0.176","JOSC","1","m","rechts","24","","fixation","","","",""
"1087","img/120_270.png","74","image-keyboard-response","359","537489","0.0-6.0-1.176","JOSC","1","m","rechts","24","","","self","j","120","true"
"null","<div style=""font-size:60px;"">+</div>","null","html-keyboard-response","360","537991","0.0-6.0-0.177","JOSC","1","m","rechts","24","","fixation","","","",""
"1101","img/120_180.png","74","image-keyboard-response","361","539092","0.0-6.0-1.177","JOSC","1","m","rechts","24","","","self","j","120","true"
"null","<div style=""font-size:60px;"">+</div>","null","html-keyboard-response","362","539594","0.0-6.0-0.178","JOSC","1","m","rechts","24","","fixation","","","",""
"1614","img/90_180.png","74","image-keyboard-response","363","541208","0.0-6.0-1.178","JOSC","1","m","rechts","24","","","self","j","90","true"
"null","<div style=""font-size:60px;"">+</div>","null","html-keyboard-response","364","541510","0.0-6.0-0.179","JOSC","1","m","rechts","24","","fixation","","","",""
"1067","img/30_240.png","70","image-keyboard-response","365","542577","0.0-6.0-1.179","JOSC","1","m","rechts","24","","","self","f","30","true"
"null","<div style=""font-size:60px;"">+</div>","null","html-keyboard-response","366","542929","0.0-6.0-0.180","JOSC","1","m","rechts","24","","fixation","","","",""
"869","img/30_180.png","74","image-keyboard-response","367","543799","0.0-6.0-1.180","JOSC","1","m","rechts","24","","","self","j","30","true"
"null","<div style=""font-size:60px;"">+</div>","null","html-keyboard-response","368","544150","0.0-6.0-0.181","JOSC","1","m","rechts","24","","fixation","","","",""
"967","img/90_210.png","74","image-keyboard-response","369","545118","0.0-6.0-1.181","JOSC","1","m","rechts","24","","","self","j","90","true"
"null","<div style=""font-size:60px;"">+</div>","null","html-keyboard-response","370","545619","0.0-6.0-0.182","JOSC","1","m","rechts","24","","fixation","","","",""
"897","img/90_300.png","70","image-keyboard-response","371","546518","0.0-6.0-1.182","JOSC","1","m","rechts","24","","","self","f","90","true"
"null","<div style=""font-size:60px;"">+</div>","null","html-keyboard-response","372","547019","0.0-6.0-0.183","JOSC","1","m","rechts","24","","fixation","","","",""
"908","img/0_150.png","74","image-keyboard-response","373","547928","0.0-6.0-1.183","JOSC","1","m","rechts","24","","","self","j","0","true"
"null","<div style=""font-size:60px;"">+</div>","null","html-keyboard-response","374","548380","0.0-6.0-0.184","JOSC","1","m","rechts","24","","fixation","","","",""
"1161","img/150_240.png","74","image-keyboard-response","375","549542","0.0-6.0-1.184","JOSC","1","m","rechts","24","","","self","j","150","true"
"null","<div style=""font-size:60px;"">+</div>","null","html-keyboard-response","376","550044","0.0-6.0-0.185","JOSC","1","m","rechts","24","","fixation","","","",""
"835","img/L60_180.png","70","image-keyboard-response","377","550880","0.0-6.0-1.185","JOSC","1","m","rechts","24","","","self","f","60","true"
"null","<div style=""font-size:60px;"">+</div>","null","html-keyboard-response","378","551332","0.0-6.0-0.186","JOSC","1","m","rechts","24","","fixation","","","",""
"1454","img/150_60.png","70","image-keyboard-response","379","552787","0.0-6.0-1.186","JOSC","1","m","rechts","24","","","self","f","150","true"
"null","<div style=""font-size:60px;"">+</div>","null","html-keyboard-response","380","553288","0.0-6.0-0.187","JOSC","1","m","rechts","24","","fixation","","","",""
"1281","img/60_270.png","70","image-keyboard-response","381","554571","0.0-6.0-1.187","JOSC","1","m","rechts","24","","","self","f","60","true"
"null","<div style=""font-size:60px;"">+</div>","null","html-keyboard-response","382","554972","0.0-6.0-0.188","JOSC","1","m","rechts","24","","fixation","","","",""
"1006","img/90_330.png","70","image-keyboard-response","383","555979","0.0-6.0-1.188","JOSC","1","m","rechts","24","","","self","f","90","true"
"null","<div style=""font-size:60px;"">+</div>","null","html-keyboard-response","384","556381","0.0-6.0-0.189","JOSC","1","m","rechts","24","","fixation","","","",""
"785","img/120_330.png","70","image-keyboard-response","385","557166","0.0-6.0-1.189","JOSC","1","m","rechts","24","","","self","f","120","true"
"null","<div style=""font-size:60px;"">+</div>","null","html-keyboard-response","386","557618","0.0-6.0-0.190","JOSC","1","m","rechts","24","","fixation","","","",""
"880","img/0_300.png","70","image-keyboard-response","387","558499","0.0-6.0-1.190","JOSC","1","m","rechts","24","","","self","f","0","true"
"null","<div style=""font-size:60px;"">+</div>","null","html-keyboard-response","388","558901","0.0-6.0-0.191","JOSC","1","m","rechts","24","","fixation","","","",""
"1313","img/90_60.png","74","image-keyboard-response","389","560214","0.0-6.0-1.191","JOSC","1","m","rechts","24","","","self","j","90","true"
"null","<div style=""font-size:60px;"">+</div>","null","html-keyboard-response","390","560716","0.0-6.0-0.192","JOSC","1","m","rechts","24","","fixation","","","",""
"805","img/0_60.png","74","image-keyboard-response","391","561522","0.0-6.0-1.192","JOSC","1","m","rechts","24","","","self","j","0","true"
"null","<div style=""font-size:60px;"">+</div>","null","html-keyboard-response","392","561974","0.0-6.0-0.193","JOSC","1","m","rechts","24","","fixation","","","",""
"895","img/120_150.png","70","image-keyboard-response","393","562870","0.0-6.0-1.193","JOSC","1","m","rechts","24","","","self","f","120","true"
"null","<div style=""font-size:60px;"">+</div>","null","html-keyboard-response","394","563272","0.0-6.0-0.194","JOSC","1","m","rechts","24","","fixation","","","",""
"735","img/L90_180.png","70","image-keyboard-response","395","564008","0.0-6.0-1.194","JOSC","1","m","rechts","24","","","self","f","90","true"
"null","<div style=""font-size:60px;"">+</div>","null","html-keyboard-response","396","564310","0.0-6.0-0.195","JOSC","1","m","rechts","24","","fixation","","","",""
"766","img/L120_180.png","70","image-keyboard-response","397","565077","0.0-6.0-1.195","JOSC","1","m","rechts","24","","","self","f","120","true"
"null","<div style=""font-size:60px;"">+</div>","null","html-keyboard-response","398","565429","0.0-6.0-0.196","JOSC","1","m","rechts","24","","fixation","","","",""
"1332","img/0_90.png","74","image-keyboard-response","399","566762","0.0-6.0-1.196","JOSC","1","m","rechts","24","","","self","j","0","true"
"null","<div style=""font-size:60px;"">+</div>","null","html-keyboard-response","400","567164","0.0-6.0-0.197","JOSC","1","m","rechts","24","","fixation","","","",""
"647","img/0_120.png","74","image-keyboard-response","401","567812","0.0-6.0-1.197","JOSC","1","m","rechts","24","","","self","j","0","true"
"null","<div style=""font-size:60px;"">+</div>","null","html-keyboard-response","402","568314","0.0-6.0-0.198","JOSC","1","m","rechts","24","","fixation","","","",""
"631","img/0_210.png","70","image-keyboard-response","403","568945","0.0-6.0-1.198","JOSC","1","m","rechts","24","","","self","f","0","true"
"null","<div style=""font-size:60px;"">+</div>","null","html-keyboard-response","404","569247","0.0-6.0-0.199","JOSC","1","m","rechts","24","","fixation","","","",""
"1070","img/L150_180.png","70","image-keyboard-response","405","570319","0.0-6.0-1.199","JOSC","1","m","rechts","24","","","self","f","150","true"
"null","<div style=""font-size:60px;"">+</div>","null","html-keyboard-response","406","570670","0.0-6.0-0.200","JOSC","1","m","rechts","24","","fixation","","","",""
"928","img/90_240.png","74","image-keyboard-response","407","571599","0.0-6.0-1.200","JOSC","1","m","rechts","24","","","self","j","90","true"
"null","<div style=""font-size:60px;"">+</div>","null","html-keyboard-response","408","572101","0.0-6.0-0.201","JOSC","1","m","rechts","24","","fixation","","","",""
"1562","img/150_270.png","74","image-keyboard-response","409","573663","0.0-6.0-1.201","JOSC","1","m","rechts","24","","","self","j","150","true"
"null","<div style=""font-size:60px;"">+</div>","null","html-keyboard-response","410","574014","0.0-6.0-0.202","JOSC","1","m","rechts","24","","fixation","","","",""
"915","img/30_60.png","74","image-keyboard-response","411","574930","0.0-6.0-1.202","JOSC","1","m","rechts","24","","","self","j","30","true"
"null","<div style=""font-size:60px;"">+</div>","null","html-keyboard-response","412","575432","0.0-6.0-0.203","JOSC","1","m","rechts","24","","fixation","","","",""
"824","img/0_330.png","70","image-keyboard-response","413","576256","0.0-6.0-1.203","JOSC","1","m","rechts","24","","","self","f","0","true"
"null","<div style=""font-size:60px;"">+</div>","null","html-keyboard-response","414","576658","0.0-6.0-0.204","JOSC","1","m","rechts","24","","fixation","","","",""
"1248","img/60_30.png","74","image-keyboard-response","415","577906","0.0-6.0-1.204","JOSC","1","m","rechts","24","","","self","j","60","true"
"null","<div style=""font-size:60px;"">+</div>","null","html-keyboard-response","416","578358","0.0-6.0-0.205","JOSC","1","m","rechts","24","","fixation","","","",""
"811","img/90_150.png","70","image-keyboard-response","417","579170","0.0-6.0-1.205","JOSC","1","m","rechts","24","","","self","f","90","true"
"null","<div style=""font-size:60px;"">+</div>","null","html-keyboard-response","418","579571","0.0-6.0-0.206","JOSC","1","m","rechts","24","","fixation","","","",""
"1066","img/30_90.png","74","image-keyboard-response","419","580638","0.0-6.0-1.206","JOSC","1","m","rechts","24","","","self","j","30","true"
"null","<div style=""font-size:60px;"">+</div>","null","html-keyboard-response","420","581140","0.0-6.0-0.207","JOSC","1","m","rechts","24","","fixation","","","",""
"842","img/150_90.png","70","image-keyboard-response","421","581982","0.0-6.0-1.207","JOSC","1","m","rechts","24","","","self","f","150","true"
"7075","<p>Du hast in 94% der Versuche korrekt entschieden.</p><p>Deine durchschnittliche Reaktionszeit war  1103ms.</p><p>Dr&uuml;cke eine beliebige Taste, um die Session zu beenden. Vielen Dank!</p>","70","html-keyboard-response","422","589058","0.0-7.0","JOSC","1","m","rechts","24","","","","","",""
